run_num	key_one	key_two	key_three	key_four	trial_num	hand	trial_dur	iti_dur	display_trial_feedback	change_type	change_time	position_change	change_to	stim_original	stim_final	start_time	end_time	real_start_time	start_ttl	start_ttl_time	correct	rt
1	1	2	3	4	0	unimanual	3.25	0.5	True	second_horizon	1.08	4.0	1.0	4 3 2 4 2 4	4 3 2 1 2 4	0.0	3.75	40.00092249992304	0	40.00092349993065	1.0	0.3323351944369885
1	1	2	3	4	1	unimanual	3.25	0.5	True	first_horizon	5.92	5.0	2.0	2 4 2 4 3 1	2 4 2 4 2 1	3.75	7.5	43.75064233329613	0	43.75064341665711	1.0	0.2836502708378248
1	1	2	3	4	2	unimanual	3.25	0.5	True					4 2 4 3 4 2	4 2 4 3 4 2	7.5	11.25	47.50064324995037	0	47.50064433331136	1.0	0.3063336111178311
1	1	2	3	4	3	unimanual	3.25	0.5	True					3 4 3 4 3 4	3 4 3 4 3 4	11.25	15.0	51.25058966665529	0	51.25059070833959	0.8333333333333334	0.3751856041684125
1	1	2	3	4	4	unimanual	3.25	0.5	True					1 3 1 4 2 4	1 3 1 4 2 4	15.0	18.75	55.000609458307736	0	55.00061054166872	1.0	0.2443834375008009
1	1	2	3	4	5	unimanual	3.25	0.5	True	second_horizon	19.29	3.0	2.0	2 4 3 4 3 1	2 4 2 4 3 1	18.75	22.5	58.75062883330975	0	58.75062983331736	0.5	0.3751442638846735
1	1	2	3	4	6	unimanual	3.25	0.5	True	first_horizon	25.21	6.0	1.0	4 2 4 3 4 2	4 2 4 3 4 1	22.5	26.25	62.50060029164888	0	62.50060133333318	1.0	0.3085777985979803
1	1	2	3	4	7	unimanual	3.25	0.5	True					4 3 4 3 1 2	4 3 4 3 1 2	26.25	30.0	66.25061412493233	0	66.25061516673304	1.0	0.2114495555676209
1	1	2	3	4	0	unimanual	3.25	0.5	True	second_horizon	0.54	3.0	1.0	1 4 2 3 4 1	1 4 1 3 4 1	0.0	3.75	5.000835916609503	0	5.000836916617118	1.0	0.3589508750010282
1	1	2	3	4	1	unimanual	3.25	0.5	True	second_horizon	4.29	3.0	1.0	3 4 2 4 2 1	3 4 1 4 2 1	3.75	7.5	8.750559666543268	0	8.750560583313927	1.0	0.3725750208444272
1	1	2	3	4	2	unimanual	3.25	0.5	True					2 1 2 1 4 1	2 1 2 1 4 1	7.5	11.25	12.500530874938704	0	12.500531916623004	1.0	0.2877129305658552
1	1	2	3	4	3	unimanual	3.25	0.5	True					4 2 3 2 4 1	4 2 3 2 4 1	11.25	15.0	16.250576874939725	0	16.25057787494734	1.0	0.2991675763817814
1	1	2	3	4	4	unimanual	3.25	0.5	True					1 3 1 3 4 2	1 3 1 3 4 2	15.0	18.75	20.00052162492648	0	20.000522583373822	1.0	0.2996715625049546
1	1	2	3	4	5	unimanual	3.25	0.5	True	first_horizon	20.38	4.0	2.0	4 1 4 3 4 2	4 1 4 2 4 2	18.75	22.5	23.750531124998815	0	23.75053212500643	1.0	0.2789628125028685
1	1	2	3	4	6	unimanual	3.25	0.5	True					4 3 2 3 1 3	4 3 2 3 1 3	22.5	26.25	27.50050312501844	0	27.500504125026055	1.0	0.3034873263677582
1	1	2	3	4	7	unimanual	3.25	0.5	True	first_horizon	26.79	2.0	3.0	2 4 2 1 4 3	2 3 2 1 4 3	26.25	30.0	31.250518208369613	0	31.250519166584127	1.0	0.3919399027945474
1	1	2	3	4	0	unimanual	3.25	0.5	True	second_horizon	0.54	3.0	1.0	1 4 2 3 4 1	1 4 1 3 4 1	0.0	3.75	5.000836124992929	0	5.000837166793644	1.0	0.3599433472263627
1	1	2	3	4	1	unimanual	3.25	0.5	True	second_horizon	4.29	3.0	1.0	3 4 2 4 2 1	3 4 1 4 2 1	3.75	7.5	8.750583125045523	0	8.750584166729823	0.8333333333333334	0.4344810972106643
1	1	2	3	4	2	unimanual	3.25	0.5	True					2 1 2 1 4 1	2 1 2 1 4 1	7.5	11.25	12.500559750013052	0	12.500560750020668	1.0	0.4496393402805552
1	1	2	3	4	3	unimanual	3.25	0.5	True					4 2 3 2 4 1	4 2 3 2 4 1	11.25	15.0	16.250652458402328	0	16.250653458409943	1.0	0.2865162013719479
1	1	2	3	4	4	unimanual	3.25	0.5	True					1 3 1 3 4 2	1 3 1 3 4 2	15.0	18.75	20.000658666715022	0	20.00065966672264	1.0	0.253005833326218
1	1	2	3	4	5	unimanual	3.25	0.5	True	first_horizon	20.38	4.0	2.0	4 1 4 3 4 2	4 1 4 2 4 2	18.75	22.5	23.750570124946535	0	23.75057112495415	0.8333333333333334	0.5034817291695314
1	1	2	3	4	6	unimanual	3.25	0.5	True					4 3 2 3 1 3	4 3 2 3 1 3	22.5	26.25	27.50057783338707	0	27.50057887495495	1.0	0.3140285833311888
1	1	2	3	4	7	unimanual	3.25	0.5	True	first_horizon	26.79	2.0	3.0	2 4 2 1 4 3	2 3 2 1 4 3	26.25	30.0	31.250653374940157	0	31.250654458417557	1.0	0.4933158264029771
1	1	2	3	4	0	unimanual	3.25	0.5	True					3 2 1 4 2 3	3 2 1 4 2 3	0.0	3.75	5.000838625011966	0	5.000839666696265	1.0	0.2902239930311528
1	1	2	3	4	1	unimanual	3.25	0.5	True	first_horizon	4.29	2.0	1.0	2 4 3 4 2 3	2 1 3 4 2 3	3.75	7.5	8.750539083383046	0	8.75054008339066	0.6666666666666666	0.3810139444346229
1	1	2	3	4	2	unimanual	3.25	0.5	True	first_horizon	9.67	5.0	2.0	2 1 2 4 1 3	2 1 2 4 2 3	7.5	11.25	12.500690625049174	0	12.500691666617058	0.6666666666666666	0.2176990972172158
1	1	2	3	4	3	unimanual	3.25	0.5	True					2 4 3 4 2 4	2 4 3 4 2 4	11.25	15.0	16.250596208381467	0	16.25059720838908	1.0	0.2603912708388331
1	1	2	3	4	4	unimanual	3.25	0.5	True	second_horizon	15.54	3.0	4.0	3 1 2 1 4 3	3 1 4 1 4 3	15.0	18.75	20.000531375058927	0	20.000532333389856	1.0	0.3367923055775463
1	1	2	3	4	5	unimanual	3.25	0.5	True					2 1 3 2 1 4	2 1 3 2 1 4	18.75	22.5	23.75054470833857	0	23.750545750022862	1.0	0.2295027360863362
1	1	2	3	4	6	unimanual	3.25	0.5	True	first_horizon	23.04	2.0	3.0	1 2 1 3 2 4	1 3 1 3 2 4	22.5	26.25	27.50064287497662	0	27.500643874984235	0.8333333333333334	0.322442729161897
1	1	2	3	4	7	unimanual	3.25	0.5	True					2 4 1 2 1 4	2 4 1 2 1 4	26.25	30.0	31.25055504159536	0	31.250556041602977	1.0	0.3113467152579687
1	1	2	3	4	0	unimanual	3.25	0.5	True					2 3 1 3 1 3	2 3 1 3 1 3	0.0	3.75	5.000917666591704	0	5.000918666599318	1.0	0.3202567361295223
1	1	2	3	4	1	unimanual	3.25	0.5	True	second_horizon	4.83	4.0	2.0	1 2 1 4 3 1	1 2 1 2 3 1	3.75	7.5	8.750711208209395	0	8.75071220821701	0.8333333333333334	0.3214230347075499
1	1	2	3	4	2	unimanual	3.25	0.5	True	second_horizon	9.67	6.0	4.0	2 1 2 3 2 3	2 1 2 3 2 4	7.5	11.25	12.500620791572146	0	12.500621833256446	1.0	0.3838632430609626
1	1	2	3	4	3	unimanual	3.25	0.5	True					4 1 2 3 4 3	4 1 2 3 4 3	11.25	15.0	16.25078045821283	0	16.250781416660175	1.0	0.2284571250008108
1	1	2	3	4	4	unimanual	3.25	0.5	True	first_horizon	15.54	2.0	4.0	3 1 2 3 1 4	3 4 2 3 1 4	15.0	18.75	20.000783916562796	0	20.000785291660577	0.8333333333333334	0.3309497013882113
1	1	2	3	4	5	unimanual	3.25	0.5	True					2 1 2 4 1 2	2 1 2 4 1 2	18.75	22.5	23.75071020820178	0	23.750711208209395	1.0	0.3709831458400003
1	1	2	3	4	6	unimanual	3.25	0.5	True					4 1 2 4 3 1	4 1 2 4 3 1	22.5	26.25	27.500645374995656	0	27.50064637500327	1.0	0.2559990069324461
1	1	2	3	4	7	unimanual	3.25	0.5	True	second_horizon	28.42	6.0	1.0	4 2 1 4 2 3	4 2 1 4 2 1	26.25	30.0	31.25073800003156	0	31.250738958246075	0.8333333333333334	0.3312140069319866
1	1	2	3	4	0	unimanual	3.25	0.5	True					4 2 4 1 2 4	4 2 4 1 2 4	0.0	3.75	5.000907166628167	0	5.000908249989152	1.0	0.4296083402781126
1	1	2	3	4	1	unimanual	3.25	0.5	True					3 2 1 4 2 1	3 2 1 4 2 1	3.75	7.5	8.750542916590348	0	8.750543916597962	1.0	0.2574825416668318
1	1	2	3	4	2	unimanual	3.25	0.5	True					3 4 1 3 1 2	3 4 1 3 1 2	7.5	11.25	12.500519666587934	0	12.500520625035278	1.0	0.3315585208474658
1	1	2	3	4	3	unimanual	3.25	0.5	True	second_horizon	12.88	5.0	2.0	2 4 3 1 4 3	2 4 3 1 2 3	11.25	15.0	16.250525624956936	0	16.250526583287865	0.8333333333333334	0.4016212986316532
1	1	2	3	4	4	unimanual	3.25	0.5	True					1 2 1 3 1 2	1 2 1 3 1 2	15.0	18.75	20.00053850002587	0	20.00053958327044	1.0	0.2299085486059387
1	1	2	3	4	5	unimanual	3.25	0.5	True	first_horizon	21.46	6.0	2.0	2 1 2 3 1 3	2 1 2 3 1 2	18.75	22.5	23.750608958187513	0	23.750609999988228	0.8333333333333334	0.2852395069397365
1	1	2	3	4	6	unimanual	3.25	0.5	True	second_horizon	23.04	3.0	2.0	1 3 1 4 2 4	1 3 2 4 2 4	22.5	26.25	27.500552166602574	0	27.50055316661019	0.8333333333333334	0.3439058888858805
1	1	2	3	4	7	unimanual	3.25	0.5	True	second_horizon	27.88	5.0	4.0	3 4 1 3 2 1	3 4 1 3 4 1	26.25	30.0	31.25052995828446	0	31.25053091661539	0.8333333333333334	0.6375785333337263
1	1	2	3	4	0	unimanual	3.25	0.5	True					2 4 2 1 4 3	2 4 2 1 4 3	0.0	3.75	5.00086191680748	0	5.000862875021994	1.0	0.3028104444383643
1	1	2	3	4	1	unimanual	3.25	0.5	True	second_horizon	4.29	3.0	4.0	4 1 2 1 2 4	4 1 4 1 2 4	3.75	7.5	8.75059825007338	0	8.750599250080995	0.8333333333333334	0.2734320138891538
1	1	2	3	4	2	unimanual	3.25	0.5	True	first_horizon	9.67	5.0	4.0	3 2 1 2 1 3	3 2 1 2 4 3	7.5	11.25	12.500599250080995	0	12.500600291765297	0.6666666666666666	0.3224639514034303
1	1	2	3	4	3	unimanual	3.25	0.5	True					1 2 3 2 1 2	1 2 3 2 1 2	11.25	15.0	16.25063054182101	0	16.250631541828625	1.0	0.2133667083301892
1	1	2	3	4	4	unimanual	3.25	0.5	True					4 1 3 2 1 3	4 1 3 2 1 3	15.0	18.75	20.000580625026487	0	20.0005816668272	1.0	0.2264482430764474
1	1	2	3	4	5	unimanual	3.25	0.5	True	second_horizon	19.29	3.0	1.0	2 4 3 4 1 3	2 4 1 4 1 3	18.75	22.5	23.75069283344783	0	23.750693875015713	1.0	0.3215570000077908
1	1	2	3	4	6	unimanual	3.25	0.5	True					4 1 3 4 2 1	4 1 3 4 2 1	22.5	26.25	27.50057583337184	0	27.50057687505614	1.0	0.2224444999980429
1	1	2	3	4	7	unimanual	3.25	0.5	True	first_horizon	27.33	3.0	4.0	2 3 2 1 3 4	2 3 4 1 3 4	26.25	30.0	31.25060479179956	0	31.250605791807175	0.8333333333333334	0.2973315902636386
1	1	2	3	4	0	unimanual	3.25	0.5	True					2 4 2 1 4 3	2 4 2 1 4 3	0.0	3.75	5.0008553334046155	0	5.0008563749725	1.0	0.3036869583302177
1	1	2	3	4	1	unimanual	3.25	0.5	True	second_horizon	4.29	3.0	4.0	4 1 2 1 2 4	4 1 4 1 2 4	3.75	7.5	8.750595333403908	0	8.750596374971792	0.8333333333333334	0.2792915972337748
1	1	2	3	4	2	unimanual	3.25	0.5	True	first_horizon	9.67	5.0	4.0	3 2 1 2 1 3	3 2 1 2 4 3	7.5	11.25	12.500588750001045	0	12.500589791801758	0.8333333333333334	0.4258743402703355
1	1	2	3	4	3	unimanual	3.25	0.5	True					1 2 3 2 1 2	1 2 3 2 1 2	11.25	15.0	16.250563041772693	0	16.250564083340578	1.0	0.2912874236353673
1	1	2	3	4	4	unimanual	3.25	0.5	True					4 1 3 2 1 3	4 1 3 2 1 3	15.0	18.75	20.00055679178331	0	20.000557791790925	1.0	0.2198503958255363
1	1	2	3	4	5	unimanual	3.25	0.5	True	second_horizon	19.29	3.0	1.0	2 4 3 4 1 3	2 4 1 4 1 3	18.75	22.5	23.75057820836082	0	23.75057925004512	0.8333333333333334	0.2856896388693712
1	1	2	3	4	6	unimanual	3.25	0.5	True					4 1 3 4 2 1	4 1 3 4 2 1	22.5	26.25	27.500538625055924	0	27.500539666740224	1.0	0.3227885347053719
1	1	2	3	4	7	unimanual	3.25	0.5	True	first_horizon	27.33	3.0	4.0	2 3 2 1 3 4	2 3 4 1 3 4	26.25	30.0	31.250576833379455	0	31.250577875063755	0.8333333333333334	0.2942111597318823
1	1	2	3	4	0	unimanual	3.25	0.5	True	first_horizon	1.08	3.0	1.0	3 4 2 4 3 4	3 4 1 4 3 4	0.0	3.75	145.00075925001877	0	145.00076033326332	0.8333333333333334	0.3546132569317706
1	1	2	3	4	1	unimanual	3.25	0.5	True					4 1 4 1 2 3	4 1 4 1 2 3	3.75	7.5	148.75056208320893	0	148.7505632500397	1.0	0.2966860833306176
1	1	2	3	4	2	unimanual	3.25	0.5	True					2 3 1 4 1 4	2 3 1 4 1 4	7.5	11.25	152.5005500416737	0	152.5005510415649	1.0	0.3149477014085278
1	1	2	3	4	3	unimanual	3.25	0.5	True					2 3 2 1 3 4	2 3 2 1 3 4	11.25	15.0	156.2505583750317	0	156.2505593332462	1.0	0.2763242986014423
1	1	2	3	4	4	unimanual	3.25	0.5	True					3 2 3 2 3 2	3 2 3 2 3 2	15.0	18.75	160.00069945829455	0	160.00070045818575	1.0	0.2931152847401487
1	1	2	3	4	5	unimanual	3.25	0.5	True	first_horizon	19.83	3.0	3.0	2 4 1 2 4 2	2 4 3 2 4 2	18.75	22.5	163.75058354157954	0	163.75058458326384	0.8333333333333334	0.47657704167068
1	1	2	3	4	6	unimanual	3.25	0.5	True	second_horizon	23.58	4.0	3.0	4 3 1 2 4 2	4 3 1 3 4 2	22.5	26.25	167.50056333327666	0	167.50056433328427	1.0	0.3779752638656646
1	1	2	3	4	7	unimanual	3.25	0.5	True	first_horizon	26.79	2.0	2.0	4 1 4 1 2 1	4 2 4 1 2 1	26.25	30.0	171.25053600000683	0	171.2505370832514	0.8333333333333334	0.5142004861069532
1	1	2	3	4	0	unimanual	3.25	0.5	True	first_horizon	1.08	3.0	1.0	4 2 3 4 2 1	4 2 1 4 2 1	0.0	3.75	75.00075929157902	0	75.00076033326332	1.0	0.5073408472041289
1	1	2	3	4	1	unimanual	3.25	0.5	True					1 2 3 2 4 3	1 2 3 2 4 3	3.75	7.5	78.75051437492948	0	78.7505153749371	1.0	0.2338151875107238
1	1	2	3	4	2	unimanual	3.25	0.5	True					3 1 3 2 3 2	3 1 3 2 3 2	7.5	11.25	82.50052399991546	0	82.5005249165697	1.0	0.298616166653422
1	1	2	3	4	3	unimanual	3.25	0.5	True	first_horizon	12.88	4.0	1.0	2 3 4 2 3 1	2 3 4 1 3 1	11.25	15.0	86.25055737490766	0	86.25055837491527	1.0	0.4515931944479234
1	1	2	3	4	4	unimanual	3.25	0.5	True					3 2 1 4 2 3	3 2 1 4 2 3	15.0	18.75	90.00054087501485	0	90.00054191658273	1.0	0.3252019444480538
1	1	2	3	4	5	unimanual	3.25	0.5	True					1 2 4 2 1 3	1 2 4 2 1 3	18.75	22.5	93.7505153749371	0	93.75051633326802	1.0	0.3616331319208257
1	1	2	3	4	6	unimanual	3.25	0.5	True	first_horizon	25.21	6.0	1.0	1 4 3 2 4 2	1 4 3 2 4 1	22.5	26.25	97.50054158316924	0	97.50054258317688	0.8333333333333334	0.2842738958424888
1	1	2	3	4	7	unimanual	3.25	0.5	True	second_horizon	27.33	4.0	1.0	4 3 4 3 4 3	4 3 4 1 4 3	26.25	30.0	101.25057179154828	0	101.2505727915559	1.0	0.3560272569302469
1	1	2	3	4	0	unimanual	3.25	0.5	True					3 4 1 3 2 3	3 4 1 3 2 3	0.0	3.75	40.000741208205	0	40.000742208212614	1.0	0.2779619930467258
1	1	2	3	4	1	unimanual	3.25	0.5	True					3 4 2 4 2 4	3 4 2 4 2 4	3.75	7.5	43.750568124931306	0	43.75056908314582	1.0	0.2263582361241181
1	1	2	3	4	2	unimanual	3.25	0.5	True	first_horizon	9.67	5.0	2.0	2 3 4 3 4 1	2 3 4 3 2 1	7.5	11.25	47.500530291581526	0	47.50053133314941	0.8333333333333334	0.2789651388884522
1	1	2	3	4	3	unimanual	3.25	0.5	True					4 3 4 3 4 2	4 3 4 3 4 2	11.25	15.0	51.25057170819491	0	51.25057266652584	1.0	0.2340690902783535
1	1	2	3	4	4	unimanual	3.25	0.5	True					2 3 2 1 4 2	2 3 2 1 4 2	15.0	18.75	55.00059079157654	0	55.000591833144426	1.0	0.2307756736020868
1	1	2	3	4	5	unimanual	3.25	0.5	True	first_horizon	21.46	6.0	3.0	2 1 4 1 4 2	2 1 4 1 4 3	18.75	22.5	58.75055241654627	0	58.75055345823057	0.8333333333333334	0.2258969861237953
1	1	2	3	4	6	unimanual	3.25	0.5	True	first_horizon	24.12	4.0	3.0	1 3 4 2 4 2	1 3 4 3 4 2	22.5	26.25	62.50055287498981	0	62.50055387499742	0.8333333333333334	0.1975999513912635
1	1	2	3	4	7	unimanual	3.25	0.5	True	first_horizon	28.96	6.0	3.0	3 2 3 4 2 1	3 2 3 4 2 3	26.25	30.0	66.25053374993149	0	66.2505347499391	0.8333333333333334	0.2932859236025251
1	1	2	3	4	0	unimanual	3.25	0.5	True					3 1 4 2 4 3	3 1 4 2 4 3	0.0	3.75	355.00079237495083	0	355.0007933333982	1.0	0.3171137500127467
1	1	2	3	4	1	unimanual	3.25	0.5	True	first_horizon	6.46	6.0	1.0	4 2 3 1 2 3	4 2 3 1 2 1	3.75	7.5	358.7505669166567	0	358.75056783342734	0.8333333333333334	0.2312305208373194
1	1	2	3	4	2	unimanual	3.25	0.5	True					1 3 2 1 3 2	1 3 2 1 3 2	7.5	11.25	362.50058383331634	0	362.50058479164727	1.0	0.1976495833368972
1	1	2	3	4	3	unimanual	3.25	0.5	True					2 4 3 4 3 4	2 4 3 4 3 4	11.25	15.0	366.25056108331773	0	366.25056208332535	1.0	0.2847297847426186
1	1	2	3	4	4	unimanual	3.25	0.5	True					4 1 4 2 1 2	4 1 4 2 1 2	15.0	18.75	370.000524458359	0	370.0005255000433	1.0	0.2254356250050477
1	1	2	3	4	5	unimanual	3.25	0.5	True	second_horizon	20.92	6.0	1.0	4 2 3 2 4 2	4 2 3 2 4 1	18.75	22.5	373.75052300002426	0	373.7505239583552	0.8333333333333334	0.3703432708280161
1	1	2	3	4	6	unimanual	3.25	0.5	True	first_horizon	25.21	6.0	2.0	1 3 2 1 3 1	1 3 2 1 3 2	22.5	26.25	377.5005836250494	0	377.50058458338026	0.8333333333333334	0.1953454930335283
1	1	2	3	4	7	unimanual	3.25	0.5	True	first_horizon	26.79	2.0	1.0	4 2 4 1 2 4	4 1 4 1 2 4	26.25	30.0	381.25056674994994	0	381.2505677083973	0.8333333333333334	0.3520861319266259
1	1	2	3	4	0	unimanual	3.25	0.5	True					3 1 4 2 4 3	3 1 4 2 4 3	0.0	3.75	355.00097220833413	0	355.00097316666506	0.0	
1	1	2	3	4	1	unimanual	3.25	0.5	True	first_horizon	6.46	6.0	1.0	4 2 3 1 2 3	4 2 3 1 2 1	3.75	7.5	358.75058299989905	0	358.75058404169977	0.0	
1	1	2	3	4	2	unimanual	3.25	0.5	True					1 3 2 1 3 2	1 3 2 1 3 2	7.5	11.25	362.5005652917316	0	362.50056629173923	0.3333333333333333	0.35886040835175664
1	1	2	3	4	3	unimanual	3.25	0.5	True					2 4 3 4 3 4	2 4 3 4 3 4	11.25	15.0	366.2506390416529	0	366.2506400833372	0.16666666666666666	1.597019562497735
1	1	2	3	4	4	unimanual	3.25	0.5	True					4 1 4 2 1 2	4 1 4 2 1 2	15.0	18.75	370.0005549999187	0	370.0005560417194	0.6666666666666666	0.28399319789605215
1	1	2	3	4	5	unimanual	3.25	0.5	True	second_horizon	20.92	6.0	1.0	4 2 3 2 4 2	4 2 3 2 4 1	18.75	22.5	373.7507073750021	0	373.7507084583631	1.0	0.2753953333206785
1	1	2	3	4	6	unimanual	3.25	0.5	True	first_horizon	25.21	6.0	2.0	1 3 2 1 3 1	1 3 2 1 3 2	22.5	26.25	377.50056441675406	0	377.50056545832194	0.6666666666666666	0.22503372500650584
1	1	2	3	4	7	unimanual	3.25	0.5	True	first_horizon	26.79	2.0	1.0	4 2 4 1 2 4	4 1 4 1 2 4	26.25	30.0	381.2505608749343	0	381.2505618749419	0.8333333333333334	0.49592276389012113
