run_num	key_true	key_false	trial_type	trial_num	hand	trial_dur	iti_dur	story	question	condition	answer	story_dur	question_dur	text_height	reward_value	reward_cue	reward_cue_dur	display_trial_feedback	start_time	end_time	real_start_time	start_ttl	start_ttl_time	response	rt	correct	points_earned
1	1	2	0	0	right	15	0	Expecting the game to be postponed because of the rain, the Garcia family took the subway home. The score was tied, 3-3. During their commute the rain stopped and the game soon ended with a score of 5-3.	"The Garcia family arrives home 
believing the score is 5-3.

True or False"	belief	False	10	4	1.25	3	3	1	True	0	15	5.00024254177697	0	5.000243458431214	0		False	0
1	1	2	1	1	right	15	0	Accounts of the country's bustling economic  success were recorded in both fiction and non-fiction books from the early 1900s. Soon after, a horrible plague hit the country and  the country was sent into an economic depression.	"Early 1900s novels portray the
country as experiencing economic 
wealth.

True or False"	photo	True	10	4	1.25	1	1	1	True	15	30	20.06674195837695	0	20.06674295838457	0		False	0
1	1	2	0	0	right	15	0	Expecting the game to be postponed because of the rain, the Garcia family took the subway home. The score was tied, 3-3. During their commute the rain stopped and the game soon ended with a score of 5-3.	"The Garcia family arrives home 
believing the score is 5-3.

True or False"	belief	False	10	4	1.25	3	3	1	True	0	15	5.000862458371557	0	5.000863541616127	2	2.2250960415694863	True	3
1	1	2	1	1	right	15	0	Accounts of the country's bustling economic  success were recorded in both fiction and non-fiction books from the early 1900s. Soon after, a horrible plague hit the country and  the country was sent into an economic depression.	"Early 1900s novels portray the
country as experiencing economic 
wealth.

True or False"	photo	True	10	4	1.25	1	1	1	True	15	30	20.00072741659824	0	20.000728458398953	1	1.7551323333755136	True	1
1	1	2	0	0	right	15	0	Expecting the game to be postponed because of the rain, the Garcia family took the subway home. The score was tied, 3-3. During their commute the rain stopped and the game soon ended with a score of 5-3.	"The Garcia family arrives home 
believing the score is 5-3.

True or False"	belief	False	10	4	1.25	3	3	1	True	0	15	5.00085979164578	0	5.000860791653395	2	2.034937458229251	True	3
1	1	2	1	1	right	15	0	Accounts of the country's bustling economic  success were recorded in both fiction and non-fiction books from the early 1900s. Soon after, a horrible plague hit the country and  the country was sent into an economic depression.	"Early 1900s novels portray the
country as experiencing economic 
wealth.

True or False"	photo	True	10	4	1.25	1	1	1	True	15	30	20.000726416590624	0	20.00072741659824	1	1.3999196250224486	True	1
1	1	2	0	0	right	15	0	Expecting the game to be postponed because of the rain, the Garcia family took the subway home. The score was tied, 3-3. During their commute the rain stopped and the game soon ended with a score of 5-3.	"The Garcia family arrives home 
believing the score is 5-3.

True or False"	belief	False	10	4	1.25	3	3	1	True	0	15	110.00082049996126	0	110.00082158320583	2	3.9036150416359305	True	3
1	1	2	1	1	right	15	0	Accounts of the country's bustling economic  success were recorded in both fiction and non-fiction books from the early 1900s. Soon after, a horrible plague hit the country and  the country was sent into an economic depression.	"Early 1900s novels portray the
country as experiencing economic 
wealth.

True or False"	photo	True	10	4	1.25	1	1	1	True	15	30	125.0005655415589	0	125.0005666250363	1	3.7047235834179446	True	1
1	1	2	0	0	right	15	0	Expecting the game to be postponed because of the rain, the Garcia family took the subway home. The score was tied, 3-3. During their commute the rain stopped and the game soon ended with a score of 5-3.	"The Garcia family arrives home 
believing the score is 5-3.

True or False"	belief	False	10	4	1.25	3	3	1	True	0	15	5.000809541787021	0	5.0008106250315905	2	2.17573433322832	True	3
1	1	2	1	1	right	15	0	Accounts of the country's bustling economic  success were recorded in both fiction and non-fiction books from the early 1900s. Soon after, a horrible plague hit the country and  the country was sent into an economic depression.	"Early 1900s novels portray the
country as experiencing economic 
wealth.

True or False"	photo	True	10	4	1.25	1	1	1	True	15	30	20.000727166770957	0	20.000728291808628	1	1.6208294582320375	True	1
1	1	2	0	0	right	15	0	Expecting the game to be postponed because of the rain, the Garcia family took the subway home. The score was tied, 3-3. During their commute the rain stopped and the game soon ended with a score of 5-3.	"The Garcia family arrives home 
believing the score is 5-3.

True or False"	belief	False	10	4	1.25	3	3	1	True	0	15	40.00082154164557	0	40.00082254165318	2	1.746225375100039	True	3
1	1	2	1	1	right	15	0	Accounts of the country's bustling economic  success were recorded in both fiction and non-fiction books from the early 1900s. Soon after, a horrible plague hit the country and  the country was sent into an economic depression.	"Early 1900s novels portray the
country as experiencing economic 
wealth.

True or False"	photo	True	10	4	1.25	1	1	1	True	15	30	55.00062062498182	0	55.000621624989435	1	2.1216912500094622	True	1
1	1	2	0	0	right	15	0	Expecting the game to be postponed because of the rain, the Garcia family took the subway home. The score was tied, 3-3. During their commute the rain stopped and the game soon ended with a score of 5-3.	"The Garcia family arrives home 
believing the score is 5-3.

True or False"	belief	False	10	4	1.25	3	3	1	True	0	15	110.00072862498928	0	110.0007296249969	2	0.4100931666325778	True	3
1	1	2	1	1	right	15	0	Accounts of the country's bustling economic  success were recorded in both fiction and non-fiction books from the early 1900s. Soon after, a horrible plague hit the country and  the country was sent into an economic depression.	"Early 1900s novels portray the
country as experiencing economic 
wealth.

True or False"	photo	True	10	4	1.25	1	1	1	True	15	30	125.0006995832082	0	125.0007006250089	2	0.5742482916684821	False	0
1	1	2	0	0	right	15	0	Expecting the game to be postponed because of the rain, the Garcia family took the subway home. The score was tied, 3-3. During their commute the rain stopped and the game soon ended with a score of 5-3.	"The Garcia family arrives home 
believing the score is 5-3.

True or False"	belief	False	10	4	1.25	1	1	1	True	0	15	110.00073766661808	0	110.00073870818596	2	1.403996374923736	True	1
1	1	2	1	1	right	15	0	Accounts of the country's bustling economic  success were recorded in both fiction and non-fiction books from the early 1900s. Soon after, a horrible plague hit the country and  the country was sent into an economic depression.	"Early 1900s novels portray the
country as experiencing economic 
wealth.

True or False"	photo	True	10	4	1.25	3	3	1	True	15	30	125.00077370821964	0	125.00077474990394	2	2.0008819999638945	False	0
1	1	2	1	0	right	15	0	The morning of high school dance Sarah placed her high heel shoes under her dress and then went shopping. That afternoon, her sister borrowed the shoes and later put them under Sarah's bed.	"Sarah gets ready assuming her
shoes are under the dress.

True or False "	belief	True	10	4	1.25	1	1	1	True	0	15	250.0008114583325	0	250.00081250001676	1	2.6102125416509807	True	1
1	1	2	1	1	right	15	0	Sargent famously painted the south bank of the river in 1885. In 1910 a huge dam was built, flooding out the whole river basin,  killing the old forests. Now the whole area is under water.	"In the painting the south bank of
the river is wooded. 

True or False "	photo	True	10	4	1.25	3	3	1	True	15	30	265.0005671666004	0	265.0005682084011	2	2.4054967917036265	False	0
1	1	2	1	0	right	15	0	The morning of high school dance Sarah placed her high heel shoes under her dress and then went shopping. That afternoon, her sister borrowed the shoes and later put them under Sarah's bed.	"Sarah gets ready assuming her
shoes are under the dress.

True or False "	belief	True	10	4	1.25	1	1	1	True	0	15	250.00082441675477	0	250.00082545832265	0		False	0
1	1	2	1	1	right	15	0	Sargent famously painted the south bank of the river in 1885. In 1910 a huge dam was built, flooding out the whole river basin,  killing the old forests. Now the whole area is under water.	"In the painting the south bank of
the river is wooded. 

True or False "	photo	True	10	4	1.25	3	3	1	True	15	30	265.0666579583194	0	265.0666590000037	0		False	0
1	1	2	0	0	right	15	0	Expecting the game to be postponed because of the rain, the Garcia family took the subway home. The score was tied, 3-3. During their commute the rain stopped and the game soon ended with a score of 5-3.	"The Garcia family arrives home 
believing the score is 5-3.

True or False"	belief	False	10	4	1.25	1	1	1	True	0	15	110.00076691654976	0	110.00076791655738	0		False	0
1	1	2	1	1	right	15	0	Accounts of the country's bustling economic  success were recorded in both fiction and non-fiction books from the early 1900s. Soon after, a horrible plague hit the country and  the country was sent into an economic depression.	"Early 1900s novels portray the
country as experiencing economic 
wealth.

True or False"	photo	True	10	4	1.25	3	3	1	True	15	30	125.0671534583671	0	125.067154499935	3	1.4466679166071117	False	0
1	1	2	0	0	right	15	0	Expecting the game to be postponed because of the rain, the Garcia family took the subway home. The score was tied, 3-3. During their commute the rain stopped and the game soon ended with a score of 5-3.	"The Garcia family arrives home 
believing the score is 5-3.

True or False"	belief	False	10	4	1.25	1	1	1	True	0	15	110.00076191662812	0	110.0007629583124	3	0.6576520416419953	False	0
1	1	2	1	1	right	15	0	Accounts of the country's bustling economic  success were recorded in both fiction and non-fiction books from the early 1900s. Soon after, a horrible plague hit the country and  the country was sent into an economic depression.	"Early 1900s novels portray the
country as experiencing economic 
wealth.

True or False"	photo	True	10	4	1.25	3	3	1	True	15	30	125.00059029168916	0	125.00059133325703	2	3.0050804583588615	False	0
1	1	2	1	0	right	15	0	When Lisa left Jacob he was deep asleep on the beach. A few minutes later a wave woke him. Seeing Lisa was gone Jacob decided to go swimming.	"Lisa now believes that Jacob is sleeping.

True or False "	belief	True	10	4	1.25	1	1	1	True	0	15	5.000872208271176	0	5.00087320827879	1	2.0691691666143015	True	1
1	1	2	1	1	right	15	0	At the time a portrait was drawn of a young man, he had short brown hair and no facial hair. Now the man's hair is long and gray and so is his beard.  	"Today the length of the man's hair
is long.

True or False "	photo	True	10	4	1.25	3	3	1	True	15	30	20.000728499959223	0	20.000729541643523	1	2.951579458429478	True	3
1	1	2	1	0	right	15	0	When Lisa left Jacob he was deep asleep on the beach. A few minutes later a wave woke him. Seeing Lisa was gone Jacob decided to go swimming.	"Lisa now believes that Jacob is sleeping.

True or False "	belief	True	10	4	1.25	1	1	1	True	0	15	5.000816458370537	0	5.000817458378151	2	2.4247136666672304	False	0
1	1	2	1	1	right	15	0	At the time a portrait was drawn of a young man, he had short brown hair and no facial hair. Now the man's hair is long and gray and so is his beard.  	"Today the length of the man's hair
is long.

True or False "	photo	True	10	4	1.25	3	3	1	True	15	30	20.000630708411336	0	20.000631791655906	2	1.5403266249923036	False	0
1	1	2	1	0	right	15	0	When Lisa left Jacob he was deep asleep on the beach. A few minutes later a wave woke him. Seeing Lisa was gone Jacob decided to go swimming.	"Lisa now believes that Jacob is sleeping.

True or False "	belief	True	10	4	1.25	1	1	1	True	0	15	5.000821416731924	0	5.000822541653179	0		False	0
1	1	2	1	1	right	15	0	At the time a portrait was drawn of a young man, he had short brown hair and no facial hair. Now the man's hair is long and gray and so is his beard.  	"Today the length of the man's hair
is long.

True or False "	photo	True	10	4	1.25	3	3	1	True	15	30	20.100407166639343	0	20.100408291677013	0		False	0
1	1	2	1	0	right	15	0	When Lisa left Jacob he was deep asleep on the beach. A few minutes later a wave woke him. Seeing Lisa was gone Jacob decided to go swimming.	"Lisa now believes that Jacob is sleeping.

True or False "	belief	True	10	4	1.25	1	1	1	True	0	15	5.000844958354719	0	5.000846000039019	0		False	0
1	1	2	1	1	right	15	0	At the time a portrait was drawn of a young man, he had short brown hair and no facial hair. Now the man's hair is long and gray and so is his beard.  	"Today the length of the man's hair
is long.

True or False "	photo	True	10	4	1.25	3	3	1	True	15	30	21.089251458412036	0	21.08925249997992	1	1.6295059999683872	True	3
1	1	2	0	0	right	15	0	Expecting the game to be postponed because of the rain, the Garcia family took the subway home. The score was tied, 3-3. During their commute the rain stopped and the game soon ended with a score of 5-3.	"The Garcia family arrives home 
believing the score is 5-3.

True or False"	belief	False	10	4	1.25	1	1	1	True	0	15	110.0008527500322	0	110.0008537916001	2	2.1102987499907613	True	1
1	1	2	1	1	right	15	0	Accounts of the country's bustling economic  success were recorded in both fiction and non-fiction books from the early 1900s. Soon after, a horrible plague hit the country and  the country was sent into an economic depression.	"Early 1900s novels portray the
country as experiencing economic 
wealth.

True or False"	photo	True	10	4	1.25	3	3	1	True	15	30	125.00071583339012	0	125.0007169584278	2	1.9453376665478572	False	0
1	1	2	1	0	right	15	0	When Lisa left Jacob he was deep asleep on the beach. A few minutes later a wave woke him. Seeing Lisa was gone Jacob decided to go swimming.	"Lisa now believes that Jacob is sleeping.

True or False "	belief	True	10	4	1.25	1	1	1	True	0	15	78.00078112492338	0	78.0007821667241	2	2.745385333430022	False	0
1	1	2	1	1	right	15	0	At the time a portrait was drawn of a young man, he had short brown hair and no facial hair. Now the man's hair is long and gray and so is his beard.  	"Today the length of the man's hair
is long.

True or False "	photo	True	10	4	1.25	3	3	1	True	15	30	93.0006496666465	0	93.00065062497742	1	1.9035394582897425	True	3
1	1	2	1	0	right	15	0	When Lisa left Jacob he was deep asleep on the beach. A few minutes later a wave woke him. Seeing Lisa was gone Jacob decided to go swimming.	"Lisa now believes that Jacob is sleeping.

True or False "	belief	True	10	4	1.25	1	1	1	True	0	15	78.00082583317999	0	78.00082695821766	1	1.5216342917410657	True	1
1	1	2	1	1	right	15	0	At the time a portrait was drawn of a young man, he had short brown hair and no facial hair. Now the man's hair is long and gray and so is his beard.  	"Today the length of the man's hair
is long.

True or False "	photo	True	10	4	1.25	3	3	1	True	15	30	93.00069629156496	0	93.0006974581629	1	3.1203605416230857	True	3
