run_num	key_true	key_false	trial_type	trial_num	hand	trial_dur	iti_dur	story	question	condition	answer	story_dur	question_dur	text_height	reward_value	reward_cue	reward_cue_dur	display_trial_feedback	start_time	end_time	real_start_time	start_ttl	start_ttl_time	response	rt	correct	points_earned
1	1	2	0	0	right	15	0	Expecting the game to be postponed because of the rain, the Garcia family took the subway home. The score was tied, 3-3. During their commute the rain stopped and the game soon ended with a score of 5-3.	"The Garcia family arrives home 
believing the score is 5-3.

True or False"	belief	False	10	4	1.25	1	1	1	True	0	15	253.00084575009532	231	0.0104697917122393	1	1.69368362496607	False	0
1	1	2	1	1	right	15	0	Accounts of the country's bustling economic  success were recorded in both fiction and non-fiction books from the early 1900s. Soon after, a horrible plague hit the country and  the country was sent into an economic depression.	"Early 1900s novels portray the
country as experiencing economic 
wealth.

True or False"	photo	True	10	4	1.25	3	3	1	True	15	30	268.00076491665095	244	0.7104297084733844	1	1.6275167500134555	True	3
2	1	2	1	0	right	15	0	The morning of high school dance Sarah placed her high heel shoes under her dress and then went shopping. That afternoon, her sister borrowed the shoes and later put them under Sarah's bed.	"Sarah gets ready assuming her
shoes are under the dress.

True or False "	belief	True	10	4	1.25	3	3	1	True	0	15	358.000840916764	325	0.5105243748985231	1	2.1526268331799656	True	3
2	1	2	1	1	right	15	0	Sargent famously painted the south bank of the river in 1885. In 1910 a huge dam was built, flooding out the whole river basin,  killing the old forests. Now the whole area is under water.	"In the painting the south bank of
the river is wooded. 

True or False "	photo	True	10	4	1.25	1	1	1	True	15	30	373.000774666667	339	0.1096035416703671	2	1.399671791587025	False	0
3	1	2	1	0	right	15	0	When Lisa left Jacob he was deep asleep on the beach. A few minutes later a wave woke him. Seeing Lisa was gone Jacob decided to go swimming.	"Lisa now believes that Jacob is sleeping.

True or False "	belief	True	10	4	1.25	3	3	1	True	0	15	358.00082337507047	326	0.5073621249757707	1	2.5695580416359007	True	3
3	1	2	1	1	right	15	0	At the time a portrait was drawn of a young man, he had short brown hair and no facial hair. Now the man's hair is long and gray and so is his beard.  	"Today the length of the man's hair
is long.

True or False "	photo	True	10	4	1.25	1	1	1	True	15	30	373.0007026665844	340	0.1073503331281244	1	1.7877006251364946	True	1
4	1	2	0	0	right	15	0	John told Mary that he had lost his keys. The two of them searched the house with no luck. Then Mary went outside to look in the car. Suddenly John noticed his keys behind the sofa.	"By the time Mary comes in, John
doesn't know where his keys are.

True or False "	belief	False	10	4	1.25	1	1	1	True	0	15	148.0008515000809	135	0.6038904169108719	1	1.904850958380848	False	0
4	1	2	1	1	right	15	0	A biography describes the room as it was in 1965. Originally the walls were covered in dark wallpaper. By 1965 the paper had been stripped and replaced with cream paint.	"The biography says that the room
was light.

True or False"	photo	True	10	4	1.25	3	3	1	True	15	30	163.00078895827755	148	0.2037271249573677	1	0.624277958413586	True	3
5	4	3	1	0	left	15	0	Susie parked her sportscar in the driveway. In the middle of the night Nathan moved her car into the garage to make room for his minivan. Susie woke up early in the morning.	"Susie sees the minivan in
the driveway.

True or False "	belief	True	10	4	1.25	3	3	1	True	0	15	183.00084037496708	167	0.4126544580794871	3	2.039037249982357	False	0
5	4	3	0	1	left	15	0	The girl's middle school pictures showed her wearing a white blouse. Later, a red sock was accidentally washed with the blouse and the blouse turned pink.  	"Today the color of the blouse is white.

True or False "	photo	False	10	4	1.25	1	1	1	True	15	30	198.0007662915159	181	0.0123401249293237	3	2.2421851251274347	True	1
6	4	3	0	0	left	15	0	A window wiper was commissioned by a CEO to wipe an entire building. He finished the right side, but his platform broke before he could do the left side. The next morning the CEO arrived with foreign investors.	"The CEO comes to work and discovers
that all of the walls are cleaned.

True or False "	belief	False	10	4	1.25	1	1	1	True	0	15	8.000821291701868	8	0.3040396666619926	4	2.4582138750702143	False	0
6	4	3	0	1	left	15	0	A long time ago, an explorer mapped a small island. Since then, the water levels rose and only a tiny part of the island is now left above water.	"On the explorer's maps, the island
appears to be mostly submerged.

True or False "	photo	False	10	4	1.25	3	3	1	True	15	30	23.00068224989809	21	1.0042209581006318	4	1.4811215416993946	False	0
7	4	3	0	0	left	15	0	Sally and Greg called ahead of time to make a reservation for the back-country cabin. The park ranger forgot to write down the reservation and two other hikers got to the cabin first.	"When the hikers arrive they see no
one in their cabin.

True or False "	belief	False	10	4	1.25	1	1	1	True	0	15	288.00103554176167	262	0.9041883333120496	3	2.075761166401207	True	1
7	4	3	0	1	left	15	0	When the picture was taken of the house, it was one story tall. Since then, the renovators added an additional story and a garage.	"The house is currently one story.

True or False "	photo	False	10	4	1.25	3	3	1	True	15	30	303.0006988751702	276	0.5040112498681992	3	3.1417446250561625	True	3
8	4	3	0	0	left	15	0	Larry chose a debated topic for his  class paper due on Friday. The news on Thursday indicated that the debate had been solved but Larry never read it.  	"When Larry writes his paper he thinks
the debate has been solved.

True or False "	belief	False	10	4	1.25	1	1	1	True	0	15	288.00083779147826	262	0.9055782498326151	3	2.69171570846811	True	1
8	4	3	1	1	left	15	0	A volcano erupted on a Carribean island three months ago. Barren lava rock is all that remains today. Satellite photographs show the island as it was before the eruption. 	"Today, the island is covered in
lava rock.

True or False "	photo	True	10	4	1.25	3	3	1	True	15	30	303.0006468750071	276	0.5057479166425765	4	1.435750166652724	True	3
9	4	3	1	0	left	15	0	Laura didn't have time to braid her horse's mane before going to camp. While she was at camp, William brushed Laura's horse and braided the horse's mane for her.	"Laura returns assuming that her
horse's hair isn't braided

True or False"	belief	True	10	4	1.25	3	3	1	True	0	15	8.000852375058457	8	0.3092675418592989	4	2.2518656249158084	True	3
9	4	3	0	1	left	15	0	A large oak tree stood in front of City Hall from the time the building was built. Last year the tree fell down and was replaced by a stone fountain.	"An antique drawing of City Hall
shows a fountain in front.

True or False "	photo	False	10	4	1.25	1	1	1	True	15	30	23.000666666775945	21	1.0093147915322334	3	1.9926032500807196	True	1
10	4	3	1	0	left	15	0	Amy walked to work today. When George woke up, he saw her car in the drive. Her room  was quiet and dark. George knows that when Amy is sick, she lies down in a dark room.	"In fact, Amy walked to work.

True or False "	belief	True	10	4	1.25	3	3	1	True	0	15	323.000832375139	294	0.7034664168022573	4	3.2753773333970457	True	3
10	4	3	0	1	left	15	0	Old maps of the islands near Titan are displayed in the Maritime museum.  Erosion has since taken its toll, leaving only the three largest islands. 	"Near Titan today there are many islands.

True or False "	photo	False	10	4	1.25	1	1	1	True	15	30	338.00068908324465	308	0.3036869582720101	3	2.6815559167880565	True	1
11	4	3	1	0	left	15	0	When they were children, Paul and Tom  would swing on the trees in their garden.  By the time they were teenagers, all of the trees had been chopped down.	"Today, there are no more trees
in the garden

True or False"	belief	True	10	4	1.25	3	3	1	True	0	15	323.0008358748164	294	0.7213582084514201	3	2.3344020415097475	False	0
11	4	3	0	1	left	15	0	Jessie leaves her chemistry book at home. Her mother, knowing that she has a chemistry exam that afternoon, brings it to school and leaves it in Jessie's locker. 	"Jessie opens her schoolbag and takes
out the chemistry book

True or False"	photo	False	10	4	1.25	1	1	1	True	15	30	338.00074566644616	308	0.3213270418345928	4	2.286527166608721	False	0
12	4	3	0	0	left	15	0	In 2000, when the schoolhouse opened, there were two classrooms and two teachers. Now, there are twenty teachers and ten classrooms to accommodate the influx of young families to the area.	"Today, there are only two classrooms
in the schoolhouse

True or False"	belief	False	10	4	1.25	1	1	1	True	0	15	183.00080562499352	167	0.4093372081406414	3	2.5797330832574517	True	1
12	4	3	0	1	left	15	0	In the photograph, the young girl has long blond hair that cascades down her back.  Today, she has black hair that falls at her shoulders. 	"Childhood pictures show the 
girl with short black hair

True or False"	photo	False	10	4	1.25	3	3	1	True	15	30	198.00078150001357	181	0.0090291667729616	3	2.285637791734189	True	3
13	1	2	1	0	right	15	0	Jennifer went to the theme park when  it first opened and spent hours  on the rides. A year ago, unbeknownst to Jennifer, the park  closed due to lack of funding.	"Jennifer goes to the park to
find that it has closed

True or False"	belief	True	10	4	1.25	3	3	1	True	0	15	358.0007894583978	326	0.5016091249417514	2	2.006693666568026	False	0
13	1	2	1	1	right	15	0	Alice arrives at the movie theater at 6PM for her date with Juan. There is no sign of him so she leaves after 30 minutes. Thinking that the movie starts at 7PM, Juan arrives with ten minutes to spare.	"Juan arrives and doesn't see Alice

True or False"	photo	True	10	4	1.25	1	1	1	True	15	30	373.00071941665374	340	0.1013195000123232	1	2.1243547918275	True	1
14	1	2	0	0	right	15	0	After a morning of sunbathing, Leslie  leaves her book on the sunchair expecting to return after lunch. Her mother notices that rainclouds are gathering and brings  the book inside. 	"Leslie returns later and 
finds the book soaking wet

True or False"	belief	False	10	4	1.25	3	3	1	True	0	15	288.00082195852883	262	0.9036521250382066	2	2.5287472081836313	True	3
14	1	2	0	1	right	15	0	The professor sends an email to the  class the night before to postpone the midterm exam. John does not receive the email. 	"John sits the exam the next day
and gets a good grade

True or False"	photo	False	10	4	1.25	1	1	1	True	15	30	303.00068475003354	276	0.5036859167739749	2	3.1888154167681932	True	1
15	1	2	1	0	right	15	0	Maria wakes up early to study at the library. Her housemates notice that she is not at breakfast and presume that she is sleeping	"In fact, Maria is studying in the library

True or False"	belief	True	10	4	1.25	3	3	1	True	0	15	43.0008168334607	40	0.1023250834550708	1	1.9300532499328256	True	3
15	1	2	0	1	right	15	0	The autobiography of the actor depicts a prosperous and extravagant  lifestyle. Soon after the book is  written the actor loses his fortune. 	"In the autobiography, the actor is 
depicted as destitute and broke

True or False"	photo	False	10	4	1.25	1	1	1	True	15	30	58.000700125005096	53	0.8022651667706668	2	2.6298354582395405	True	1
16	1	2	1	0	right	15	0	Sarah texts Paul to let him know that she will miss dinner  because she is working late. Paul  has lost his phone and does not get her message. 	"Paul expects Sarah to be home for dinner

True or False"	belief	True	10	4	1.25	1	1	1	True	0	15	218.00079158344306	199	0.2024708748795092	1	1.6351902082096785	True	1
16	1	2	1	1	right	15	0	In her prom picture, Laura has braces on her teeth and long  blond hair. Soon after the picture  was taken, Laura's braces were removed	"Today, Laura has straight teeth
and long blond hair

True or False"	photo	True	10	4	1.25	3	3	1	True	15	30	233.00069850008003	212	0.9021886249538511	1	2.9551367501262575	True	3
