run_num	key_left	key_right	correct_side	trial_type	trial_num	hand	condition	grid_size	num_boxes_lit	num_steps	original_sequence	modified_sequence	original_step_1	original_step_2	original_step_3	display_trial_feedback	trial_dur	sequence_dur	question_dur	iti_dur	start_time	end_time	real_start_time	start_ttl	start_ttl_time	response	rt	correct
1	1	2	right	1	0	right	easy	(3, 4)	2	3	[(0, 3), (1, 2), (2, 2), (1, 3), (2, 1), (2, 3)]	[(0, 3), (1, 2), (2, 2), (1, 3), (0, 2), (1, 1)]	[(0, 3), (1, 2)]	[(2, 2), (1, 3)]	[(2, 1), (2, 3)]	True	7	4	3	0.5	0.0	7.5	358.00028545828536	326	0.5100364999379963	1	1.4322386665735394	False
1	1	2	right	1	1	right	easy	(3, 4)	2	3	[(0, 2), (2, 2), (0, 1), (1, 2), (0, 3), (0, 0)]	[(0, 2), (2, 2), (0, 1), (1, 2), (2, 1), (2, 3)]	[(0, 2), (2, 2)]	[(0, 1), (1, 2)]	[(0, 3), (0, 0)]	True	7	4	3	0.5	7.5	15.0	365.5000372081995	333	0.3100240831263363	1	1.260166666470468	False
1	1	2	right	1	2	right	hard	(4, 4)	3	3	[(3, 3), (2, 0), (3, 0), (2, 1), (3, 1), (2, 3), (1, 3), (2, 2), (3, 2)]	[(1, 2), (0, 3), (1, 1), (2, 1), (3, 1), (2, 3), (1, 3), (2, 2), (3, 2)]	[(3, 3), (2, 0), (3, 0)]	[(2, 1), (3, 1), (2, 3)]	[(1, 3), (2, 2), (3, 2)]	True	7	4	3	0.5	15.0	22.5	373.000039833365	340	0.1099015416111797	1	1.3943446250632403	False
1	1	2	left	0	3	right	hard	(4, 4)	3	3	[(2, 1), (0, 3), (0, 1), (0, 2), (1, 1), (1, 3), (2, 0), (1, 2), (1, 0)]	[(0, 0), (2, 3), (3, 0), (0, 2), (1, 1), (1, 3), (2, 0), (1, 2), (1, 0)]	[(2, 1), (0, 3), (0, 1)]	[(0, 2), (1, 1), (1, 3)]	[(2, 0), (1, 2), (1, 0)]	True	7	4	3	0.5	22.5	30.0	380.5000471251551	346	1.009693750180304	2	1.6901502499822527	False
2	1	2	right	1	0	right	easy	(3, 4)	2	3	[(0, 2), (0, 3), (0, 1), (1, 3), (2, 3), (0, 0)]	[(0, 2), (0, 3), (0, 1), (1, 3), (1, 2), (1, 1)]	[(0, 2), (0, 3)]	[(0, 1), (1, 3)]	[(2, 3), (0, 0)]	True	7	4	3	0.5	0.0	7.5	8.000392583431676	8	0.3102445832919329	2	1.0792429998982698	True
2	1	2	right	1	1	right	easy	(3, 4)	2	3	[(2, 0), (1, 0), (2, 1), (1, 1), (0, 0), (1, 2)]	[(2, 0), (1, 0), (2, 1), (1, 1), (0, 1), (2, 2)]	[(2, 0), (1, 0)]	[(2, 1), (1, 1)]	[(0, 0), (1, 2)]	True	7	4	3	0.5	7.5	15.0	15.50003574998118	15	0.1097602918744087	2	1.828347166767344	True
2	1	2	right	1	2	right	hard	(4, 4)	3	3	[(0, 2), (2, 3), (2, 2), (1, 3), (0, 3), (1, 2), (3, 3), (2, 1), (0, 1)]	[(0, 2), (2, 3), (2, 2), (3, 2), (1, 1), (0, 0), (3, 3), (2, 1), (0, 1)]	[(0, 2), (2, 3), (2, 2)]	[(1, 3), (0, 3), (1, 2)]	[(3, 3), (2, 1), (0, 1)]	True	7	4	3	0.5	15.0	22.5	23.00002554175444	21	1.0099572082981467	2	1.2833438336383551	True
2	1	2	left	0	3	right	hard	(4, 4)	3	3	[(0, 2), (2, 3), (2, 0), (0, 1), (1, 2), (2, 1), (1, 3), (2, 2), (0, 3)]	[(1, 1), (3, 2), (0, 0), (0, 1), (1, 2), (2, 1), (1, 3), (2, 2), (0, 3)]	[(0, 2), (2, 3), (2, 0)]	[(0, 1), (1, 2), (2, 1)]	[(1, 3), (2, 2), (0, 3)]	True	7	4	3	0.5	22.5	30.0	30.500026166671887	28	0.8099482501856983	1	1.4546247913967818	True
3	1	2	left	0	0	right	easy	(3, 4)	2	3	[(2, 3), (2, 0), (1, 0), (2, 2), (1, 3), (2, 1)]	[(2, 3), (2, 0), (1, 1), (1, 2), (1, 3), (2, 1)]	[(2, 3), (2, 0)]	[(1, 0), (2, 2)]	[(1, 3), (2, 1)]	True	7	4	3	0.5	0.0	7.5	113.0002739583142	103	0.8062016665935516	2	1.3859057081863284	False
3	1	2	left	0	1	right	easy	(3, 4)	2	3	[(1, 0), (0, 2), (1, 1), (0, 1), (2, 0), (2, 1)]	[(1, 0), (0, 2), (1, 1), (0, 1), (1, 2), (0, 3)]	[(1, 0), (0, 2)]	[(1, 1), (0, 1)]	[(2, 0), (2, 1)]	True	7	4	3	0.5	7.5	15.0	120.50001920829529	110	0.6061407499946654	2	1.3109738749917597	False
3	1	2	left	0	2	right	hard	(4, 4)	3	3	[(1, 0), (1, 1), (2, 0), (3, 0), (0, 1), (2, 1), (3, 1), (2, 2), (1, 2)]	[(0, 0), (0, 2), (2, 3), (3, 0), (0, 1), (2, 1), (3, 1), (2, 2), (1, 2)]	[(1, 0), (1, 1), (2, 0)]	[(3, 0), (0, 1), (2, 1)]	[(3, 1), (2, 2), (1, 2)]	True	7	4	3	0.5	15.0	22.5	128.00002037500963	117	0.4062151666730642	1	1.179959791712463	True
3	1	2	left	0	3	right	hard	(4, 4)	3	3	[(3, 1), (2, 2), (0, 3), (3, 0), (1, 3), (1, 2), (2, 3), (1, 1), (2, 1)]	[(2, 0), (3, 3), (1, 0), (3, 0), (1, 3), (1, 2), (2, 3), (1, 1), (2, 1)]	[(3, 1), (2, 2), (0, 3)]	[(3, 0), (1, 3), (1, 2)]	[(2, 3), (1, 1), (2, 1)]	True	7	4	3	0.5	22.5	30.0	135.50001004152	124	0.2062680418603122	1	1.706316833384335	True
4	1	2	right	1	0	right	easy	(3, 4)	2	3	[(0, 1), (0, 2), (1, 1), (1, 2), (0, 3), (1, 0)]	[(0, 1), (0, 2), (0, 0), (1, 3), (0, 3), (1, 0)]	[(0, 1), (0, 2)]	[(1, 1), (1, 2)]	[(0, 3), (1, 0)]	True	7	4	3	0.5	0.0	7.5	78.00021233316511	71	1.002942250110209	2	1.3383712915237993	True
4	1	2	right	1	1	right	easy	(3, 4)	2	3	[(1, 3), (1, 1), (2, 1), (2, 3), (0, 1), (1, 0)]	[(1, 3), (1, 1), (0, 3), (1, 2), (0, 1), (1, 0)]	[(1, 3), (1, 1)]	[(2, 1), (2, 3)]	[(0, 1), (1, 0)]	True	7	4	3	0.5	7.5	15.0	85.50002362509258	78	0.8028077501803637	2	1.1812567918095738	True
4	1	2	right	1	2	right	hard	(4, 4)	3	3	[(1, 2), (1, 0), (0, 0), (0, 1), (2, 2), (0, 2), (1, 3), (2, 0), (2, 3)]	[(1, 2), (1, 0), (0, 0), (0, 3), (3, 0), (1, 1), (1, 3), (2, 0), (2, 3)]	[(1, 2), (1, 0), (0, 0)]	[(0, 1), (2, 2), (0, 2)]	[(1, 3), (2, 0), (2, 3)]	True	7	4	3	0.5	15.0	22.5	93.00001399987376	85	0.6029562500771135	1	1.5022792916279286	False
4	1	2	right	1	3	right	hard	(4, 4)	3	3	[(2, 0), (1, 1), (3, 3), (3, 0), (1, 2), (3, 2), (1, 3), (1, 0), (2, 1)]	[(2, 0), (1, 1), (3, 3), (2, 3), (3, 1), (2, 2), (1, 3), (1, 0), (2, 1)]	[(2, 0), (1, 1), (3, 3)]	[(3, 0), (1, 2), (3, 2)]	[(1, 3), (1, 0), (2, 1)]	True	7	4	3	0.5	22.5	30.0	100.50001633330248	92	0.4028093749657273	2	1.26428687479347	True
5	4	3	right	1	0	left	easy	(3, 4)	2	3	[(2, 2), (0, 3), (2, 1), (0, 2), (1, 2), (1, 3)]	[(2, 0), (1, 1), (2, 1), (0, 2), (1, 2), (1, 3)]	[(2, 2), (0, 3)]	[(2, 1), (0, 2)]	[(1, 2), (1, 3)]	True	7	4	3	0.5	0.0	7.5	78.00075424998067	71	1.0123385831248015	1	1.3179874999914318	False
5	4	3	left	0	1	left	easy	(3, 4)	2	3	[(0, 3), (2, 2), (2, 1), (2, 3), (1, 2), (2, 0)]	[(0, 2), (1, 1), (2, 1), (2, 3), (1, 2), (2, 0)]	[(0, 3), (2, 2)]	[(2, 1), (2, 3)]	[(1, 2), (2, 0)]	True	7	4	3	0.5	7.5	15.0	85.50004579150118	78	0.8117562083061785	3	1.357980833388865	False
5	4	3	right	1	2	left	hard	(4, 4)	3	3	[(0, 2), (0, 3), (1, 3), (1, 2), (2, 3), (0, 1), (2, 2), (1, 1), (3, 3)]	[(0, 0), (1, 0), (2, 1), (1, 2), (2, 3), (0, 1), (2, 2), (1, 1), (3, 3)]	[(0, 2), (0, 3), (1, 3)]	[(1, 2), (2, 3), (0, 1)]	[(2, 2), (1, 1), (3, 3)]	True	7	4	3	0.5	15.0	22.5	93.00005499995314	85	0.6116738750133663	4	0.8508980830665678	False
5	4	3	right	1	3	left	hard	(4, 4)	3	3	[(3, 1), (1, 3), (2, 2), (2, 3), (2, 1), (1, 2), (3, 3), (3, 2), (1, 1)]	[(3, 1), (1, 3), (2, 2), (2, 3), (2, 1), (1, 2), (0, 2), (2, 0), (0, 3)]	[(3, 1), (1, 3), (2, 2)]	[(2, 3), (2, 1), (1, 2)]	[(3, 3), (3, 2), (1, 1)]	True	7	4	3	0.5	22.5	30.0	100.5000454580877	92	0.4116945832502097	4	1.2589232914615422	False
6	4	3	left	0	0	left	easy	(3, 4)	2	3	[(2, 1), (1, 0), (2, 0), (1, 1), (2, 2), (0, 1)]	[(2, 1), (1, 0), (2, 0), (1, 1), (1, 2), (0, 0)]	[(2, 1), (1, 0)]	[(2, 0), (1, 1)]	[(2, 2), (0, 1)]	True	7	4	3	0.5	0.0	7.5	428.00023041665554	390	0.1032623334322124	2	1.876064541283995	False
6	4	3	right	1	1	left	easy	(3, 4)	2	3	[(2, 2), (2, 1), (2, 0), (1, 2), (2, 3), (0, 2)]	[(2, 2), (2, 1), (2, 0), (1, 2), (1, 3), (1, 1)]	[(2, 2), (2, 1)]	[(2, 0), (1, 2)]	[(2, 3), (0, 2)]	True	7	4	3	0.5	7.5	15.0	435.500019791536	396	1.0032028751447797	1	1.3229178751353174	False
6	4	3	right	1	2	left	hard	(4, 4)	3	3	[(0, 1), (2, 3), (1, 3), (0, 2), (0, 0), (2, 2), (2, 1), (0, 3), (3, 3)]	[(0, 1), (2, 3), (1, 3), (0, 2), (0, 0), (2, 2), (1, 0), (1, 1), (1, 2)]	[(0, 1), (2, 3), (1, 3)]	[(0, 2), (0, 0), (2, 2)]	[(2, 1), (0, 3), (3, 3)]	True	7	4	3	0.5	15.0	22.5	443.0000147083774	403	0.8028972500469536	2	1.2557163750752809	False
6	4	3	right	1	3	left	hard	(4, 4)	3	3	[(1, 2), (1, 0), (0, 3), (2, 2), (0, 0), (1, 1), (0, 2), (3, 2), (2, 0)]	[(1, 2), (1, 0), (0, 3), (2, 2), (0, 0), (1, 1), (0, 1), (2, 1), (1, 3)]	[(1, 2), (1, 0), (0, 3)]	[(2, 2), (0, 0), (1, 1)]	[(0, 2), (3, 2), (2, 0)]	True	7	4	3	0.5	22.5	30.0	450.5000213747844	410	0.6031301249749959	4	1.6434894585981965	False
7	4	3	right	1	0	left	easy	(3, 4)	2	3	[(1, 0), (1, 1), (0, 1), (1, 2), (1, 3), (2, 2)]	[(0, 3), (0, 2), (0, 1), (1, 2), (1, 3), (2, 2)]	[(1, 0), (1, 1)]	[(0, 1), (1, 2)]	[(1, 3), (2, 2)]	True	7	4	3	0.5	0.0	7.5	428.0002271668054	390	0.1035156666766852	3	1.3742744999472052	True
7	4	3	left	0	1	left	easy	(3, 4)	2	3	[(2, 1), (1, 2), (2, 2), (0, 2), (2, 0), (1, 1)]	[(2, 1), (1, 2), (2, 2), (0, 2), (1, 3), (0, 1)]	[(2, 1), (1, 2)]	[(2, 2), (0, 2)]	[(2, 0), (1, 1)]	True	7	4	3	0.5	7.5	15.0	435.50001758360304	396	1.0024712914600968	4	1.5070519999135286	True
7	4	3	left	0	2	left	hard	(4, 4)	3	3	[(1, 2), (3, 0), (2, 1), (3, 1), (1, 3), (0, 2), (2, 2), (2, 3), (3, 2)]	[(0, 1), (0, 3), (3, 3), (3, 1), (1, 3), (0, 2), (2, 2), (2, 3), (3, 2)]	[(1, 2), (3, 0), (2, 1)]	[(3, 1), (1, 3), (0, 2)]	[(2, 2), (2, 3), (3, 2)]	True	7	4	3	0.5	15.0	22.5	443.00002579181455	403	0.8033275417983532	3	1.3393822917714715	False
7	4	3	right	1	3	left	hard	(4, 4)	3	3	[(0, 2), (0, 3), (0, 1), (1, 3), (1, 1), (0, 0), (1, 0), (2, 3), (1, 2)]	[(3, 3), (2, 2), (2, 1), (1, 3), (1, 1), (0, 0), (1, 0), (2, 3), (1, 2)]	[(0, 2), (0, 3), (0, 1)]	[(1, 3), (1, 1), (0, 0)]	[(1, 0), (2, 3), (1, 2)]	True	7	4	3	0.5	22.5	30.0	450.50001700012945	410	0.6034226666670293	4	1.2943992500659078	False
8	4	3	left	0	0	left	easy	(3, 4)	2	3	[(2, 1), (2, 3), (2, 0), (1, 3), (1, 0), (1, 1)]	[(2, 1), (2, 3), (0, 1), (0, 0), (1, 0), (1, 1)]	[(2, 1), (2, 3)]	[(2, 0), (1, 3)]	[(1, 0), (1, 1)]	True	7	4	3	0.5	0.0	7.5	43.00027125002816	40	0.1050212502013892	4	1.3239666665904224	True
8	4	3	left	0	1	left	easy	(3, 4)	2	3	[(1, 0), (0, 2), (1, 2), (0, 3), (0, 0), (2, 0)]	[(1, 0), (0, 2), (0, 1), (1, 1), (0, 0), (2, 0)]	[(1, 0), (0, 2)]	[(1, 2), (0, 3)]	[(0, 0), (2, 0)]	True	7	4	3	0.5	7.5	15.0	50.500019333325326	46	1.00598799996078	3	1.4037819581571966	False
8	4	3	left	0	2	left	hard	(4, 4)	3	3	[(1, 1), (1, 0), (2, 3), (3, 3), (2, 0), (0, 1), (1, 3), (3, 0), (1, 2)]	[(1, 1), (1, 0), (2, 3), (3, 1), (2, 2), (2, 1), (1, 3), (3, 0), (1, 2)]	[(1, 1), (1, 0), (2, 3)]	[(3, 3), (2, 0), (0, 1)]	[(1, 3), (3, 0), (1, 2)]	True	7	4	3	0.5	15.0	22.5	58.0000284165144	53	0.8048402501735836	4	1.2101126669440418	True
8	4	3	left	0	3	left	hard	(4, 4)	3	3	[(2, 1), (1, 1), (3, 3), (1, 2), (2, 3), (1, 0), (0, 2), (3, 2), (2, 0)]	[(2, 1), (1, 1), (3, 3), (1, 2), (2, 3), (1, 0), (0, 1), (3, 1), (1, 3)]	[(2, 1), (1, 1), (3, 3)]	[(1, 2), (2, 3), (1, 0)]	[(0, 2), (3, 2), (2, 0)]	True	7	4	3	0.5	22.5	30.0	65.50002250005491	60	0.6047813750337809	4	1.2209947500377891	True
9	4	3	right	1	0	left	easy	(3, 4)	2	3	[(1, 0), (1, 3), (2, 0), (1, 1), (2, 1), (0, 0)]	[(2, 2), (0, 1), (2, 0), (1, 1), (2, 1), (0, 0)]	[(1, 0), (1, 3)]	[(2, 0), (1, 1)]	[(2, 1), (0, 0)]	True	7	4	3	0.5	0.0	7.5	358.00028266664594	326	0.508971625007689	1	0.8745579167734832	False
9	4	3	right	1	1	left	easy	(3, 4)	2	3	[(1, 1), (2, 0), (1, 0), (1, 2), (2, 2), (1, 3)]	[(1, 1), (2, 0), (1, 0), (1, 2), (0, 1), (0, 2)]	[(1, 1), (2, 0)]	[(1, 0), (1, 2)]	[(2, 2), (1, 3)]	True	7	4	3	0.5	7.5	15.0	365.5000432499219	333	0.3086344164330512	3	1.7049042501021177	True
9	4	3	right	1	2	left	hard	(4, 4)	3	3	[(3, 2), (0, 3), (3, 0), (3, 1), (1, 3), (2, 2), (2, 3), (1, 2), (2, 1)]	[(0, 2), (2, 0), (1, 1), (3, 1), (1, 3), (2, 2), (2, 3), (1, 2), (2, 1)]	[(3, 2), (0, 3), (3, 0)]	[(3, 1), (1, 3), (2, 2)]	[(2, 3), (1, 2), (2, 1)]	True	7	4	3	0.5	15.0	22.5	373.00004458334297	340	0.1087605417706072	4	1.0010571251623333	False
9	4	3	left	0	3	left	hard	(4, 4)	3	3	[(2, 2), (3, 2), (3, 3), (2, 1), (3, 1), (1, 2), (2, 3), (0, 2), (1, 1)]	[(2, 2), (3, 2), (3, 3), (2, 1), (3, 1), (1, 2), (2, 0), (1, 3), (3, 0)]	[(2, 2), (3, 2), (3, 3)]	[(2, 1), (3, 1), (1, 2)]	[(2, 3), (0, 2), (1, 1)]	True	7	4	3	0.5	22.5	30.0	380.5000358750112	346	1.008834291715175	4	1.2280147499404848	True
10	4	3	right	1	0	left	easy	(3, 4)	2	3	[(1, 2), (0, 0), (1, 0), (1, 3), (0, 1), (1, 1)]	[(1, 2), (0, 0), (2, 1), (2, 2), (0, 1), (1, 1)]	[(1, 2), (0, 0)]	[(1, 0), (1, 3)]	[(0, 1), (1, 1)]	True	7	4	3	0.5	0.0	7.5	288.00116258324124	262	0.9023287498857826	4	1.2967527084983883	False
10	4	3	left	0	1	left	easy	(3, 4)	2	3	[(1, 0), (0, 0), (2, 0), (0, 1), (1, 1), (2, 1)]	[(1, 2), (0, 2), (2, 0), (0, 1), (1, 1), (2, 1)]	[(1, 0), (0, 0)]	[(2, 0), (0, 1)]	[(1, 1), (2, 1)]	True	7	4	3	0.5	7.5	15.0	295.50006558327004	269	0.7028104166965932	4	0.7433130834251642	True
10	4	3	left	0	2	left	hard	(4, 4)	3	3	[(1, 2), (1, 1), (3, 2), (0, 2), (3, 3), (1, 3), (2, 1), (2, 2), (3, 1)]	[(1, 2), (1, 1), (3, 2), (0, 2), (3, 3), (1, 3), (1, 0), (0, 1), (2, 3)]	[(1, 2), (1, 1), (3, 2)]	[(0, 2), (3, 3), (1, 3)]	[(2, 1), (2, 2), (3, 1)]	True	7	4	3	0.5	15.0	22.5	303.00006925011985	276	0.502848458243534	4	1.4437281251884997	True
10	4	3	right	1	3	left	hard	(4, 4)	3	3	[(0, 2), (2, 3), (3, 2), (2, 2), (1, 2), (3, 3), (0, 1), (1, 3), (3, 1)]	[(0, 2), (2, 3), (3, 2), (2, 2), (1, 2), (3, 3), (0, 3), (2, 1), (1, 1)]	[(0, 2), (2, 3), (3, 2)]	[(2, 2), (1, 2), (3, 3)]	[(0, 1), (1, 3), (3, 1)]	True	7	4	3	0.5	22.5	30.0	310.500062874984	283	0.3028192918282002	3	1.283798083430156	True
11	4	3	right	1	0	left	easy	(3, 4)	2	3	[(2, 1), (1, 0), (2, 2), (2, 0), (1, 2), (0, 0)]	[(2, 1), (1, 0), (2, 2), (2, 0), (1, 1), (2, 3)]	[(2, 1), (1, 0)]	[(2, 2), (2, 0)]	[(1, 2), (0, 0)]	True	7	4	3	0.5	0.0	7.5	253.00023591634815	231	0.020762541797012	3	1.000943541759625	True
11	4	3	left	0	1	left	easy	(3, 4)	2	3	[(1, 2), (2, 3), (0, 2), (1, 3), (0, 3), (1, 1)]	[(1, 2), (2, 3), (0, 2), (1, 3), (0, 1), (2, 2)]	[(1, 2), (2, 3)]	[(0, 2), (1, 3)]	[(0, 3), (1, 1)]	True	7	4	3	0.5	7.5	15.0	260.5000350831542	237	0.9206040417775512	4	1.640970833133906	True
11	4	3	left	0	2	left	hard	(4, 4)	3	3	[(0, 3), (2, 3), (2, 0), (1, 0), (2, 1), (2, 2), (0, 0), (1, 2), (1, 1)]	[(1, 3), (0, 1), (3, 2), (1, 0), (2, 1), (2, 2), (0, 0), (1, 2), (1, 1)]	[(0, 3), (2, 3), (2, 0)]	[(1, 0), (2, 1), (2, 2)]	[(0, 0), (1, 2), (1, 1)]	True	7	4	3	0.5	15.0	22.5	268.0000285413116	244	0.7206544580403715	4	1.4638332915492356	True
11	4	3	left	0	3	left	hard	(4, 4)	3	3	[(0, 0), (2, 2), (0, 2), (2, 3), (3, 2), (0, 1), (3, 3), (2, 1), (1, 2)]	[(1, 3), (1, 1), (3, 1), (2, 3), (3, 2), (0, 1), (3, 3), (2, 1), (1, 2)]	[(0, 0), (2, 2), (0, 2)]	[(2, 3), (3, 2), (0, 1)]	[(3, 3), (2, 1), (1, 2)]	True	7	4	3	0.5	22.5	30.0	275.50003004143946	251	0.5206779167056084	4	1.103786916937679	True
12	4	3	right	1	0	left	easy	(3, 4)	2	3	[(1, 3), (0, 3), (0, 2), (2, 3), (1, 2), (0, 1)]	[(2, 2), (1, 1), (0, 2), (2, 3), (1, 2), (0, 1)]	[(1, 3), (0, 3)]	[(0, 2), (2, 3)]	[(1, 2), (0, 1)]	True	7	4	3	0.5	0.0	7.5	218.00024183327332	199	0.2088193751405924	3	1.2142517915926874	True
12	4	3	left	0	1	left	easy	(3, 4)	2	3	[(0, 0), (0, 1), (1, 0), (0, 2), (2, 0), (0, 3)]	[(0, 0), (0, 1), (1, 0), (0, 2), (1, 1), (1, 2)]	[(0, 0), (0, 1)]	[(1, 0), (0, 2)]	[(2, 0), (0, 3)]	True	7	4	3	0.5	7.5	15.0	225.50004766648635	206	0.0085087085608392	4	0.9005987914279103	True
12	4	3	right	1	2	left	hard	(4, 4)	3	3	[(3, 0), (2, 0), (1, 3), (2, 3), (3, 1), (1, 2), (1, 0), (3, 2), (1, 1)]	[(3, 0), (2, 0), (1, 3), (2, 3), (3, 1), (1, 2), (0, 3), (2, 2), (2, 1)]	[(3, 0), (2, 0), (1, 3)]	[(2, 3), (3, 1), (1, 2)]	[(1, 0), (3, 2), (1, 1)]	True	7	4	3	0.5	15.0	22.5	233.00004537496716	212	0.910104541806504	3	1.3978982500266284	True
12	4	3	right	1	3	left	hard	(4, 4)	3	3	[(0, 1), (3, 1), (1, 0), (3, 0), (0, 0), (2, 0), (3, 2), (2, 1), (0, 2)]	[(0, 1), (3, 1), (1, 0), (2, 2), (1, 1), (0, 3), (3, 2), (2, 1), (0, 2)]	[(0, 1), (3, 1), (1, 0)]	[(3, 0), (0, 0), (2, 0)]	[(3, 2), (2, 1), (0, 2)]	True	7	4	3	0.5	22.5	30.0	240.500039833365	219	0.7083867082837969	3	2.1516663334332407	True
13	1	2	left	0	0	right	easy	(3, 4)	2	3	[(0, 1), (2, 1), (1, 1), (0, 0), (0, 2), (2, 2)]	[(0, 1), (2, 1), (1, 1), (0, 0), (2, 0), (1, 2)]	[(0, 1), (2, 1)]	[(1, 1), (0, 0)]	[(0, 2), (2, 2)]	True	7	4	3	0.5	0.0	7.5	288.00019966671243	262	0.9006790418643504	1	1.7236015417147428	True
13	1	2	left	0	1	right	easy	(3, 4)	2	3	[(0, 1), (1, 3), (0, 2), (0, 3), (2, 3), (0, 0)]	[(0, 1), (1, 3), (0, 2), (0, 3), (1, 2), (1, 1)]	[(0, 1), (1, 3)]	[(0, 2), (0, 3)]	[(2, 3), (0, 0)]	True	7	4	3	0.5	7.5	15.0	295.50002237502486	269	0.7008640833664685	1	0.9298167498782276	True
13	1	2	right	1	2	right	hard	(4, 4)	3	3	[(0, 0), (2, 3), (2, 2), (2, 1), (1, 2), (3, 2), (1, 0), (0, 1), (3, 1)]	[(0, 0), (2, 3), (2, 2), (2, 1), (1, 2), (3, 2), (1, 1), (1, 3), (0, 2)]	[(0, 0), (2, 3), (2, 2)]	[(2, 1), (1, 2), (3, 2)]	[(1, 0), (0, 1), (3, 1)]	True	7	4	3	0.5	15.0	22.5	303.0000279999804	276	0.5007986249402165	1	1.1457198748830706	False
13	1	2	left	0	3	right	hard	(4, 4)	3	3	[(0, 0), (2, 2), (3, 2), (1, 2), (1, 0), (2, 1), (2, 3), (0, 1), (3, 1)]	[(0, 0), (2, 2), (3, 2), (3, 3), (1, 3), (3, 0), (2, 3), (0, 1), (3, 1)]	[(0, 0), (2, 2), (3, 2)]	[(1, 2), (1, 0), (2, 1)]	[(2, 3), (0, 1), (3, 1)]	True	7	4	3	0.5	22.5	30.0	310.5000289166346	283	0.3008002918213606	1	0.8936369167640805	True
14	1	2	right	1	0	right	easy	(3, 4)	2	3	[(2, 0), (0, 3), (1, 3), (1, 0), (0, 0), (1, 2)]	[(1, 1), (0, 2), (1, 3), (1, 0), (0, 0), (1, 2)]	[(2, 0), (0, 3)]	[(1, 3), (1, 0)]	[(0, 0), (1, 2)]	True	7	4	3	0.5	0.0	7.5	428.000206916593	390	0.1033775836694985	1	1.657977958675474	False
14	1	2	right	1	1	right	easy	(3, 4)	2	3	[(0, 0), (0, 3), (0, 1), (0, 2), (1, 3), (1, 2)]	[(2, 3), (1, 1), (0, 1), (0, 2), (1, 3), (1, 2)]	[(0, 0), (0, 3)]	[(0, 1), (0, 2)]	[(1, 3), (1, 2)]	True	7	4	3	0.5	7.5	15.0	435.5000173749868	396	1.0031769999768585	2	1.2172038750723004	True
14	1	2	left	0	2	right	hard	(4, 4)	3	3	[(3, 2), (2, 1), (0, 3), (3, 3), (3, 1), (2, 2), (3, 0), (2, 0), (1, 1)]	[(3, 2), (2, 1), (0, 3), (1, 3), (1, 2), (1, 0), (3, 0), (2, 0), (1, 1)]	[(3, 2), (2, 1), (0, 3)]	[(3, 3), (3, 1), (2, 2)]	[(3, 0), (2, 0), (1, 1)]	True	7	4	3	0.5	15.0	22.5	443.0000263333786	403	0.8020142500754446	1	1.3709500832483172	True
14	1	2	right	1	3	right	hard	(4, 4)	3	3	[(0, 3), (1, 2), (2, 2), (1, 1), (2, 3), (1, 3), (0, 2), (2, 1), (1, 0)]	[(0, 3), (1, 2), (2, 2), (2, 0), (3, 2), (3, 1), (0, 2), (2, 1), (1, 0)]	[(0, 3), (1, 2), (2, 2)]	[(1, 1), (2, 3), (1, 3)]	[(0, 2), (2, 1), (1, 0)]	True	7	4	3	0.5	22.5	30.0	450.5000247915741	410	0.603158500045538	1	1.074937958503142	False
15	1	2	left	0	0	right	easy	(3, 4)	2	3	[(0, 1), (1, 2), (1, 1), (0, 2), (1, 0), (1, 3)]	[(0, 1), (1, 2), (1, 1), (0, 2), (0, 3), (2, 1)]	[(0, 1), (1, 2)]	[(1, 1), (0, 2)]	[(1, 0), (1, 3)]	True	7	4	3	0.5	0.0	7.5	8.00023908354342	8	0.3017256667371839	1	0.7213880000635982	True
15	1	2	right	1	1	right	easy	(3, 4)	2	3	[(0, 3), (0, 1), (0, 2), (1, 1), (1, 0), (0, 0)]	[(0, 3), (0, 1), (0, 2), (1, 1), (1, 3), (2, 1)]	[(0, 3), (0, 1)]	[(0, 2), (1, 1)]	[(1, 0), (0, 0)]	True	7	4	3	0.5	7.5	15.0	15.50003229174763	15	0.1011602499056607	2	0.945478708250448	True
15	1	2	right	1	2	right	hard	(4, 4)	3	3	[(2, 3), (2, 0), (2, 1), (2, 2), (1, 0), (3, 1), (0, 0), (3, 0), (3, 3)]	[(2, 3), (2, 0), (2, 1), (2, 2), (1, 0), (3, 1), (1, 1), (3, 2), (1, 3)]	[(2, 3), (2, 0), (2, 1)]	[(2, 2), (1, 0), (3, 1)]	[(0, 0), (3, 0), (3, 3)]	True	7	4	3	0.5	15.0	22.5	23.00004216679372	21	1.0013984164688736	2	0.9865160000044852	True
15	1	2	right	1	3	right	hard	(4, 4)	3	3	[(1, 2), (3, 0), (0, 2), (3, 1), (0, 3), (0, 1), (2, 1), (3, 2), (2, 2)]	[(1, 2), (3, 0), (0, 2), (1, 1), (2, 0), (2, 3), (2, 1), (3, 2), (2, 2)]	[(1, 2), (3, 0), (0, 2)]	[(3, 1), (0, 3), (0, 1)]	[(2, 1), (3, 2), (2, 2)]	True	7	4	3	0.5	22.5	30.0	30.50004224991426	28	0.8015358750708401	2	1.2265345000196248	True
16	1	2	left	0	0	right	easy	(3, 4)	2	3	[(2, 2), (2, 3), (2, 1), (1, 3), (1, 2), (0, 3)]	[(2, 2), (2, 3), (2, 1), (1, 3), (2, 0), (1, 1)]	[(2, 2), (2, 3)]	[(2, 1), (1, 3)]	[(1, 2), (0, 3)]	True	7	4	3	0.5	0.0	7.5	393.00021358346567	358	0.30227037495933473	1	0.951393083203584	True
16	1	2	right	1	1	right	easy	(3, 4)	2	3	[(2, 3), (1, 2), (1, 1), (0, 2), (2, 2), (0, 1)]	[(2, 3), (1, 2), (1, 1), (0, 2), (2, 1), (1, 3)]	[(2, 3), (1, 2)]	[(1, 1), (0, 2)]	[(2, 2), (0, 1)]	True	7	4	3	0.5	7.5	15.0	400.5000370417256	365	0.10222829156555235	1	1.2443492917809635	False
16	1	2	left	0	2	right	hard	(4, 4)	3	3	[(2, 3), (2, 1), (0, 0), (2, 2), (1, 0), (3, 3), (0, 1), (3, 2), (2, 0)]	[(2, 3), (2, 1), (0, 0), (2, 2), (1, 0), (3, 3), (1, 2), (3, 1), (1, 1)]	[(2, 3), (2, 1), (0, 0)]	[(2, 2), (1, 0), (3, 3)]	[(0, 1), (3, 2), (2, 0)]	True	7	4	3	0.5	15.0	22.5	408.0000351667404	371	1.00202895863913	1	1.3628183333203197	True
16	1	2	right	1	3	right	hard	(4, 4)	3	3	[(2, 2), (0, 3), (3, 3), (1, 2), (2, 3), (0, 2), (1, 3), (1, 1), (0, 1)]	[(0, 0), (2, 1), (1, 0), (1, 2), (2, 3), (0, 2), (1, 3), (1, 1), (0, 1)]	[(2, 2), (0, 3), (3, 3)]	[(1, 2), (2, 3), (0, 2)]	[(1, 3), (1, 1), (0, 1)]	True	7	4	3	0.5	22.5	30.0	415.5000363334548	378	0.8020894166547805	1	0.8786801667883992	False
