run_num	key_one	key_two	key_three	key_four	trial_num	hand	trial_dur	iti_dur	display_trial_feedback	change_type	change_time	position_change	change_to	stim_original	stim_final	start_time	end_time	real_start_time	start_ttl	start_ttl_time	correct	rt
1	1	2	3	4	0	unimanual	3.25	0.5	True	second_horizon	1.08	4.0	1.0	4 3 2 4 2 4	4 3 2 1 2 4	0.0	3.75	40.00092249992304	0	40.00092349993065	1.0	0.3323351944369885
1	1	2	3	4	1	unimanual	3.25	0.5	True	first_horizon	5.92	5.0	2.0	2 4 2 4 3 1	2 4 2 4 2 1	3.75	7.5	43.75064233329613	0	43.75064341665711	1.0	0.2836502708378248
1	1	2	3	4	2	unimanual	3.25	0.5	True					4 2 4 3 4 2	4 2 4 3 4 2	7.5	11.25	47.50064324995037	0	47.50064433331136	1.0	0.3063336111178311
1	1	2	3	4	3	unimanual	3.25	0.5	True					3 4 3 4 3 4	3 4 3 4 3 4	11.25	15.0	51.25058966665529	0	51.25059070833959	0.8333333333333334	0.3751856041684125
1	1	2	3	4	4	unimanual	3.25	0.5	True					1 3 1 4 2 4	1 3 1 4 2 4	15.0	18.75	55.000609458307736	0	55.00061054166872	1.0	0.2443834375008009
1	1	2	3	4	5	unimanual	3.25	0.5	True	second_horizon	19.29	3.0	2.0	2 4 3 4 3 1	2 4 2 4 3 1	18.75	22.5	58.75062883330975	0	58.75062983331736	0.5	0.3751442638846735
1	1	2	3	4	6	unimanual	3.25	0.5	True	first_horizon	25.21	6.0	1.0	4 2 4 3 4 2	4 2 4 3 4 1	22.5	26.25	62.50060029164888	0	62.50060133333318	1.0	0.3085777985979803
1	1	2	3	4	7	unimanual	3.25	0.5	True					4 3 4 3 1 2	4 3 4 3 1 2	26.25	30.0	66.25061412493233	0	66.25061516673304	1.0	0.2114495555676209
1	1	2	3	4	0	unimanual	3.25	0.5	True	second_horizon	0.54	3.0	1.0	1 4 2 3 4 1	1 4 1 3 4 1	0.0	3.75	5.000835916609503	0	5.000836916617118	1.0	0.3589508750010282
1	1	2	3	4	1	unimanual	3.25	0.5	True	second_horizon	4.29	3.0	1.0	3 4 2 4 2 1	3 4 1 4 2 1	3.75	7.5	8.750559666543268	0	8.750560583313927	1.0	0.3725750208444272
1	1	2	3	4	2	unimanual	3.25	0.5	True					2 1 2 1 4 1	2 1 2 1 4 1	7.5	11.25	12.500530874938704	0	12.500531916623004	1.0	0.2877129305658552
1	1	2	3	4	3	unimanual	3.25	0.5	True					4 2 3 2 4 1	4 2 3 2 4 1	11.25	15.0	16.250576874939725	0	16.25057787494734	1.0	0.2991675763817814
1	1	2	3	4	4	unimanual	3.25	0.5	True					1 3 1 3 4 2	1 3 1 3 4 2	15.0	18.75	20.00052162492648	0	20.000522583373822	1.0	0.2996715625049546
1	1	2	3	4	5	unimanual	3.25	0.5	True	first_horizon	20.38	4.0	2.0	4 1 4 3 4 2	4 1 4 2 4 2	18.75	22.5	23.750531124998815	0	23.75053212500643	1.0	0.2789628125028685
1	1	2	3	4	6	unimanual	3.25	0.5	True					4 3 2 3 1 3	4 3 2 3 1 3	22.5	26.25	27.50050312501844	0	27.500504125026055	1.0	0.3034873263677582
1	1	2	3	4	7	unimanual	3.25	0.5	True	first_horizon	26.79	2.0	3.0	2 4 2 1 4 3	2 3 2 1 4 3	26.25	30.0	31.250518208369613	0	31.250519166584127	1.0	0.3919399027945474
1	1	2	3	4	0	unimanual	3.25	0.5	True	second_horizon	0.54	3.0	1.0	1 4 2 3 4 1	1 4 1 3 4 1	0.0	3.75	5.000836124992929	0	5.000837166793644	1.0	0.3599433472263627
1	1	2	3	4	1	unimanual	3.25	0.5	True	second_horizon	4.29	3.0	1.0	3 4 2 4 2 1	3 4 1 4 2 1	3.75	7.5	8.750583125045523	0	8.750584166729823	0.8333333333333334	0.4344810972106643
1	1	2	3	4	2	unimanual	3.25	0.5	True					2 1 2 1 4 1	2 1 2 1 4 1	7.5	11.25	12.500559750013052	0	12.500560750020668	1.0	0.4496393402805552
1	1	2	3	4	3	unimanual	3.25	0.5	True					4 2 3 2 4 1	4 2 3 2 4 1	11.25	15.0	16.250652458402328	0	16.250653458409943	1.0	0.2865162013719479
1	1	2	3	4	4	unimanual	3.25	0.5	True					1 3 1 3 4 2	1 3 1 3 4 2	15.0	18.75	20.000658666715022	0	20.00065966672264	1.0	0.253005833326218
1	1	2	3	4	5	unimanual	3.25	0.5	True	first_horizon	20.38	4.0	2.0	4 1 4 3 4 2	4 1 4 2 4 2	18.75	22.5	23.750570124946535	0	23.75057112495415	0.8333333333333334	0.5034817291695314
1	1	2	3	4	6	unimanual	3.25	0.5	True					4 3 2 3 1 3	4 3 2 3 1 3	22.5	26.25	27.50057783338707	0	27.50057887495495	1.0	0.3140285833311888
1	1	2	3	4	7	unimanual	3.25	0.5	True	first_horizon	26.79	2.0	3.0	2 4 2 1 4 3	2 3 2 1 4 3	26.25	30.0	31.250653374940157	0	31.250654458417557	1.0	0.4933158264029771
1	1	2	3	4	0	unimanual	3.25	0.5	True					3 2 1 4 2 3	3 2 1 4 2 3	0.0	3.75	5.000838625011966	0	5.000839666696265	1.0	0.2902239930311528
1	1	2	3	4	1	unimanual	3.25	0.5	True	first_horizon	4.29	2.0	1.0	2 4 3 4 2 3	2 1 3 4 2 3	3.75	7.5	8.750539083383046	0	8.75054008339066	0.6666666666666666	0.3810139444346229
1	1	2	3	4	2	unimanual	3.25	0.5	True	first_horizon	9.67	5.0	2.0	2 1 2 4 1 3	2 1 2 4 2 3	7.5	11.25	12.500690625049174	0	12.500691666617058	0.6666666666666666	0.2176990972172158
1	1	2	3	4	3	unimanual	3.25	0.5	True					2 4 3 4 2 4	2 4 3 4 2 4	11.25	15.0	16.250596208381467	0	16.25059720838908	1.0	0.2603912708388331
1	1	2	3	4	4	unimanual	3.25	0.5	True	second_horizon	15.54	3.0	4.0	3 1 2 1 4 3	3 1 4 1 4 3	15.0	18.75	20.000531375058927	0	20.000532333389856	1.0	0.3367923055775463
1	1	2	3	4	5	unimanual	3.25	0.5	True					2 1 3 2 1 4	2 1 3 2 1 4	18.75	22.5	23.75054470833857	0	23.750545750022862	1.0	0.2295027360863362
1	1	2	3	4	6	unimanual	3.25	0.5	True	first_horizon	23.04	2.0	3.0	1 2 1 3 2 4	1 3 1 3 2 4	22.5	26.25	27.50064287497662	0	27.500643874984235	0.8333333333333334	0.322442729161897
1	1	2	3	4	7	unimanual	3.25	0.5	True					2 4 1 2 1 4	2 4 1 2 1 4	26.25	30.0	31.25055504159536	0	31.250556041602977	1.0	0.3113467152579687
1	1	2	3	4	0	unimanual	3.25	0.5	True					2 3 1 3 1 3	2 3 1 3 1 3	0.0	3.75	5.000917666591704	0	5.000918666599318	1.0	0.3202567361295223
1	1	2	3	4	1	unimanual	3.25	0.5	True	second_horizon	4.83	4.0	2.0	1 2 1 4 3 1	1 2 1 2 3 1	3.75	7.5	8.750711208209395	0	8.75071220821701	0.8333333333333334	0.3214230347075499
1	1	2	3	4	2	unimanual	3.25	0.5	True	second_horizon	9.67	6.0	4.0	2 1 2 3 2 3	2 1 2 3 2 4	7.5	11.25	12.500620791572146	0	12.500621833256446	1.0	0.3838632430609626
1	1	2	3	4	3	unimanual	3.25	0.5	True					4 1 2 3 4 3	4 1 2 3 4 3	11.25	15.0	16.25078045821283	0	16.250781416660175	1.0	0.2284571250008108
1	1	2	3	4	4	unimanual	3.25	0.5	True	first_horizon	15.54	2.0	4.0	3 1 2 3 1 4	3 4 2 3 1 4	15.0	18.75	20.000783916562796	0	20.000785291660577	0.8333333333333334	0.3309497013882113
1	1	2	3	4	5	unimanual	3.25	0.5	True					2 1 2 4 1 2	2 1 2 4 1 2	18.75	22.5	23.75071020820178	0	23.750711208209395	1.0	0.3709831458400003
1	1	2	3	4	6	unimanual	3.25	0.5	True					4 1 2 4 3 1	4 1 2 4 3 1	22.5	26.25	27.500645374995656	0	27.50064637500327	1.0	0.2559990069324461
1	1	2	3	4	7	unimanual	3.25	0.5	True	second_horizon	28.42	6.0	1.0	4 2 1 4 2 3	4 2 1 4 2 1	26.25	30.0	31.25073800003156	0	31.250738958246075	0.8333333333333334	0.3312140069319866
1	1	2	3	4	0	unimanual	3.25	0.5	True					4 2 4 1 2 4	4 2 4 1 2 4	0.0	3.75	5.000907166628167	0	5.000908249989152	1.0	0.4296083402781126
1	1	2	3	4	1	unimanual	3.25	0.5	True					3 2 1 4 2 1	3 2 1 4 2 1	3.75	7.5	8.750542916590348	0	8.750543916597962	1.0	0.2574825416668318
1	1	2	3	4	2	unimanual	3.25	0.5	True					3 4 1 3 1 2	3 4 1 3 1 2	7.5	11.25	12.500519666587934	0	12.500520625035278	1.0	0.3315585208474658
1	1	2	3	4	3	unimanual	3.25	0.5	True	second_horizon	12.88	5.0	2.0	2 4 3 1 4 3	2 4 3 1 2 3	11.25	15.0	16.250525624956936	0	16.250526583287865	0.8333333333333334	0.4016212986316532
1	1	2	3	4	4	unimanual	3.25	0.5	True					1 2 1 3 1 2	1 2 1 3 1 2	15.0	18.75	20.00053850002587	0	20.00053958327044	1.0	0.2299085486059387
1	1	2	3	4	5	unimanual	3.25	0.5	True	first_horizon	21.46	6.0	2.0	2 1 2 3 1 3	2 1 2 3 1 2	18.75	22.5	23.750608958187513	0	23.750609999988228	0.8333333333333334	0.2852395069397365
1	1	2	3	4	6	unimanual	3.25	0.5	True	second_horizon	23.04	3.0	2.0	1 3 1 4 2 4	1 3 2 4 2 4	22.5	26.25	27.500552166602574	0	27.50055316661019	0.8333333333333334	0.3439058888858805
1	1	2	3	4	7	unimanual	3.25	0.5	True	second_horizon	27.88	5.0	4.0	3 4 1 3 2 1	3 4 1 3 4 1	26.25	30.0	31.25052995828446	0	31.25053091661539	0.8333333333333334	0.6375785333337263
1	1	2	3	4	0	unimanual	3.25	0.5	True					2 4 2 1 4 3	2 4 2 1 4 3	0.0	3.75	5.00086191680748	0	5.000862875021994	1.0	0.3028104444383643
1	1	2	3	4	1	unimanual	3.25	0.5	True	second_horizon	4.29	3.0	4.0	4 1 2 1 2 4	4 1 4 1 2 4	3.75	7.5	8.75059825007338	0	8.750599250080995	0.8333333333333334	0.2734320138891538
1	1	2	3	4	2	unimanual	3.25	0.5	True	first_horizon	9.67	5.0	4.0	3 2 1 2 1 3	3 2 1 2 4 3	7.5	11.25	12.500599250080995	0	12.500600291765297	0.6666666666666666	0.3224639514034303
1	1	2	3	4	3	unimanual	3.25	0.5	True					1 2 3 2 1 2	1 2 3 2 1 2	11.25	15.0	16.25063054182101	0	16.250631541828625	1.0	0.2133667083301892
1	1	2	3	4	4	unimanual	3.25	0.5	True					4 1 3 2 1 3	4 1 3 2 1 3	15.0	18.75	20.000580625026487	0	20.0005816668272	1.0	0.2264482430764474
1	1	2	3	4	5	unimanual	3.25	0.5	True	second_horizon	19.29	3.0	1.0	2 4 3 4 1 3	2 4 1 4 1 3	18.75	22.5	23.75069283344783	0	23.750693875015713	1.0	0.3215570000077908
1	1	2	3	4	6	unimanual	3.25	0.5	True					4 1 3 4 2 1	4 1 3 4 2 1	22.5	26.25	27.50057583337184	0	27.50057687505614	1.0	0.2224444999980429
1	1	2	3	4	7	unimanual	3.25	0.5	True	first_horizon	27.33	3.0	4.0	2 3 2 1 3 4	2 3 4 1 3 4	26.25	30.0	31.25060479179956	0	31.250605791807175	0.8333333333333334	0.2973315902636386
1	1	2	3	4	0	unimanual	3.25	0.5	True					2 4 2 1 4 3	2 4 2 1 4 3	0.0	3.75	5.0008553334046155	0	5.0008563749725	1.0	0.3036869583302177
1	1	2	3	4	1	unimanual	3.25	0.5	True	second_horizon	4.29	3.0	4.0	4 1 2 1 2 4	4 1 4 1 2 4	3.75	7.5	8.750595333403908	0	8.750596374971792	0.8333333333333334	0.2792915972337748
1	1	2	3	4	2	unimanual	3.25	0.5	True	first_horizon	9.67	5.0	4.0	3 2 1 2 1 3	3 2 1 2 4 3	7.5	11.25	12.500588750001045	0	12.500589791801758	0.8333333333333334	0.4258743402703355
1	1	2	3	4	3	unimanual	3.25	0.5	True					1 2 3 2 1 2	1 2 3 2 1 2	11.25	15.0	16.250563041772693	0	16.250564083340578	1.0	0.2912874236353673
1	1	2	3	4	4	unimanual	3.25	0.5	True					4 1 3 2 1 3	4 1 3 2 1 3	15.0	18.75	20.00055679178331	0	20.000557791790925	1.0	0.2198503958255363
1	1	2	3	4	5	unimanual	3.25	0.5	True	second_horizon	19.29	3.0	1.0	2 4 3 4 1 3	2 4 1 4 1 3	18.75	22.5	23.75057820836082	0	23.75057925004512	0.8333333333333334	0.2856896388693712
1	1	2	3	4	6	unimanual	3.25	0.5	True					4 1 3 4 2 1	4 1 3 4 2 1	22.5	26.25	27.500538625055924	0	27.500539666740224	1.0	0.3227885347053719
1	1	2	3	4	7	unimanual	3.25	0.5	True	first_horizon	27.33	3.0	4.0	2 3 2 1 3 4	2 3 4 1 3 4	26.25	30.0	31.250576833379455	0	31.250577875063755	0.8333333333333334	0.2942111597318823
1	1	2	3	4	0	unimanual	3.25	0.5	True	first_horizon	1.08	3.0	1.0	3 4 2 4 3 4	3 4 1 4 3 4	0.0	3.75	145.00075925001877	0	145.00076033326332	0.8333333333333334	0.3546132569317706
1	1	2	3	4	1	unimanual	3.25	0.5	True					4 1 4 1 2 3	4 1 4 1 2 3	3.75	7.5	148.75056208320893	0	148.7505632500397	1.0	0.2966860833306176
1	1	2	3	4	2	unimanual	3.25	0.5	True					2 3 1 4 1 4	2 3 1 4 1 4	7.5	11.25	152.5005500416737	0	152.5005510415649	1.0	0.3149477014085278
1	1	2	3	4	3	unimanual	3.25	0.5	True					2 3 2 1 3 4	2 3 2 1 3 4	11.25	15.0	156.2505583750317	0	156.2505593332462	1.0	0.2763242986014423
1	1	2	3	4	4	unimanual	3.25	0.5	True					3 2 3 2 3 2	3 2 3 2 3 2	15.0	18.75	160.00069945829455	0	160.00070045818575	1.0	0.2931152847401487
1	1	2	3	4	5	unimanual	3.25	0.5	True	first_horizon	19.83	3.0	3.0	2 4 1 2 4 2	2 4 3 2 4 2	18.75	22.5	163.75058354157954	0	163.75058458326384	0.8333333333333334	0.47657704167068
1	1	2	3	4	6	unimanual	3.25	0.5	True	second_horizon	23.58	4.0	3.0	4 3 1 2 4 2	4 3 1 3 4 2	22.5	26.25	167.50056333327666	0	167.50056433328427	1.0	0.3779752638656646
1	1	2	3	4	7	unimanual	3.25	0.5	True	first_horizon	26.79	2.0	2.0	4 1 4 1 2 1	4 2 4 1 2 1	26.25	30.0	171.25053600000683	0	171.2505370832514	0.8333333333333334	0.5142004861069532
1	1	2	3	4	0	unimanual	3.25	0.5	True	first_horizon	1.08	3.0	1.0	4 2 3 4 2 1	4 2 1 4 2 1	0.0	3.75	75.00075929157902	0	75.00076033326332	1.0	0.5073408472041289
1	1	2	3	4	1	unimanual	3.25	0.5	True					1 2 3 2 4 3	1 2 3 2 4 3	3.75	7.5	78.75051437492948	0	78.7505153749371	1.0	0.2338151875107238
1	1	2	3	4	2	unimanual	3.25	0.5	True					3 1 3 2 3 2	3 1 3 2 3 2	7.5	11.25	82.50052399991546	0	82.5005249165697	1.0	0.298616166653422
1	1	2	3	4	3	unimanual	3.25	0.5	True	first_horizon	12.88	4.0	1.0	2 3 4 2 3 1	2 3 4 1 3 1	11.25	15.0	86.25055737490766	0	86.25055837491527	1.0	0.4515931944479234
1	1	2	3	4	4	unimanual	3.25	0.5	True					3 2 1 4 2 3	3 2 1 4 2 3	15.0	18.75	90.00054087501485	0	90.00054191658273	1.0	0.3252019444480538
1	1	2	3	4	5	unimanual	3.25	0.5	True					1 2 4 2 1 3	1 2 4 2 1 3	18.75	22.5	93.7505153749371	0	93.75051633326802	1.0	0.3616331319208257
1	1	2	3	4	6	unimanual	3.25	0.5	True	first_horizon	25.21	6.0	1.0	1 4 3 2 4 2	1 4 3 2 4 1	22.5	26.25	97.50054158316924	0	97.50054258317688	0.8333333333333334	0.2842738958424888
1	1	2	3	4	7	unimanual	3.25	0.5	True	second_horizon	27.33	4.0	1.0	4 3 4 3 4 3	4 3 4 1 4 3	26.25	30.0	101.25057179154828	0	101.2505727915559	1.0	0.3560272569302469
1	1	2	3	4	0	unimanual	3.25	0.5	True					3 4 1 3 2 3	3 4 1 3 2 3	0.0	3.75	40.000741208205	0	40.000742208212614	1.0	0.2779619930467258
1	1	2	3	4	1	unimanual	3.25	0.5	True					3 4 2 4 2 4	3 4 2 4 2 4	3.75	7.5	43.750568124931306	0	43.75056908314582	1.0	0.2263582361241181
1	1	2	3	4	2	unimanual	3.25	0.5	True	first_horizon	9.67	5.0	2.0	2 3 4 3 4 1	2 3 4 3 2 1	7.5	11.25	47.500530291581526	0	47.50053133314941	0.8333333333333334	0.2789651388884522
1	1	2	3	4	3	unimanual	3.25	0.5	True					4 3 4 3 4 2	4 3 4 3 4 2	11.25	15.0	51.25057170819491	0	51.25057266652584	1.0	0.2340690902783535
1	1	2	3	4	4	unimanual	3.25	0.5	True					2 3 2 1 4 2	2 3 2 1 4 2	15.0	18.75	55.00059079157654	0	55.000591833144426	1.0	0.2307756736020868
1	1	2	3	4	5	unimanual	3.25	0.5	True	first_horizon	21.46	6.0	3.0	2 1 4 1 4 2	2 1 4 1 4 3	18.75	22.5	58.75055241654627	0	58.75055345823057	0.8333333333333334	0.2258969861237953
1	1	2	3	4	6	unimanual	3.25	0.5	True	first_horizon	24.12	4.0	3.0	1 3 4 2 4 2	1 3 4 3 4 2	22.5	26.25	62.50055287498981	0	62.50055387499742	0.8333333333333334	0.1975999513912635
1	1	2	3	4	7	unimanual	3.25	0.5	True	first_horizon	28.96	6.0	3.0	3 2 3 4 2 1	3 2 3 4 2 3	26.25	30.0	66.25053374993149	0	66.2505347499391	0.8333333333333334	0.2932859236025251
1	1	2	3	4	0	unimanual	3.25	0.5	True					3 1 4 2 4 3	3 1 4 2 4 3	0.0	3.75	355.00079237495083	0	355.0007933333982	1.0	0.3171137500127467
1	1	2	3	4	1	unimanual	3.25	0.5	True	first_horizon	6.46	6.0	1.0	4 2 3 1 2 3	4 2 3 1 2 1	3.75	7.5	358.7505669166567	0	358.75056783342734	0.8333333333333334	0.2312305208373194
1	1	2	3	4	2	unimanual	3.25	0.5	True					1 3 2 1 3 2	1 3 2 1 3 2	7.5	11.25	362.50058383331634	0	362.50058479164727	1.0	0.1976495833368972
1	1	2	3	4	3	unimanual	3.25	0.5	True					2 4 3 4 3 4	2 4 3 4 3 4	11.25	15.0	366.25056108331773	0	366.25056208332535	1.0	0.2847297847426186
1	1	2	3	4	4	unimanual	3.25	0.5	True					4 1 4 2 1 2	4 1 4 2 1 2	15.0	18.75	370.000524458359	0	370.0005255000433	1.0	0.2254356250050477
1	1	2	3	4	5	unimanual	3.25	0.5	True	second_horizon	20.92	6.0	1.0	4 2 3 2 4 2	4 2 3 2 4 1	18.75	22.5	373.75052300002426	0	373.7505239583552	0.8333333333333334	0.3703432708280161
1	1	2	3	4	6	unimanual	3.25	0.5	True	first_horizon	25.21	6.0	2.0	1 3 2 1 3 1	1 3 2 1 3 2	22.5	26.25	377.5005836250494	0	377.50058458338026	0.8333333333333334	0.1953454930335283
1	1	2	3	4	7	unimanual	3.25	0.5	True	first_horizon	26.79	2.0	1.0	4 2 4 1 2 4	4 1 4 1 2 4	26.25	30.0	381.25056674994994	0	381.2505677083973	0.8333333333333334	0.3520861319266259
1	1	2	3	4	0	unimanual	3.25	0.5	True					3 1 4 2 4 3	3 1 4 2 4 3	0.0	3.75	355.00097220833413	0	355.00097316666506	0.0	
1	1	2	3	4	1	unimanual	3.25	0.5	True	first_horizon	6.46	6.0	1.0	4 2 3 1 2 3	4 2 3 1 2 1	3.75	7.5	358.75058299989905	0	358.75058404169977	0.0	
1	1	2	3	4	2	unimanual	3.25	0.5	True					1 3 2 1 3 2	1 3 2 1 3 2	7.5	11.25	362.5005652917316	0	362.5005662917392	0.3333333333333333	0.3588604083517566
1	1	2	3	4	3	unimanual	3.25	0.5	True					2 4 3 4 3 4	2 4 3 4 3 4	11.25	15.0	366.2506390416529	0	366.2506400833372	0.1666666666666666	1.597019562497735
1	1	2	3	4	4	unimanual	3.25	0.5	True					4 1 4 2 1 2	4 1 4 2 1 2	15.0	18.75	370.0005549999187	0	370.0005560417194	0.6666666666666666	0.2839931978960521
1	1	2	3	4	5	unimanual	3.25	0.5	True	second_horizon	20.92	6.0	1.0	4 2 3 2 4 2	4 2 3 2 4 1	18.75	22.5	373.7507073750021	0	373.7507084583631	1.0	0.2753953333206785
1	1	2	3	4	6	unimanual	3.25	0.5	True	first_horizon	25.21	6.0	2.0	1 3 2 1 3 1	1 3 2 1 3 2	22.5	26.25	377.50056441675406	0	377.50056545832194	0.6666666666666666	0.2250337250065058
1	1	2	3	4	7	unimanual	3.25	0.5	True	first_horizon	26.79	2.0	1.0	4 2 4 1 2 4	4 1 4 1 2 4	26.25	30.0	381.2505608749343	0	381.2505618749419	0.8333333333333334	0.4959227638901211
1	1	2	3	4	0	unimanual	3.25	0.5	True					3 4 1 3 2 3	3 4 1 3 2 3	0.0	3.75	40.000793916522525	0	40.00079491653014	0.3333333333333333	1.3314288750407286
1	1	2	3	4	1	unimanual	3.25	0.5	True					3 4 2 4 2 4	3 4 2 4 2 4	3.75	7.5	43.75063820835203	0	43.75063916656654	0.3333333333333333	1.2763756666099653
1	1	2	3	4	2	unimanual	3.25	0.5	True	first_horizon	9.67	5.0	2.0	2 3 4 3 4 1	2 3 4 3 2 1	7.5	11.25	47.50060208328068	0	47.5006030832883	0.5	0.7962019722520685
1	1	2	3	4	3	unimanual	3.25	0.5	True					4 3 4 3 4 2	4 3 4 3 4 2	11.25	15.0	51.25057170831133	0	51.25057266652584	0.3333333333333333	0.9362219028019656
1	1	2	3	4	4	unimanual	3.25	0.5	True					2 3 2 1 4 2	2 3 2 1 4 2	15.0	18.75	55.000601666630246	0	55.00060274999123	0.3333333333333333	0.3654104930659135
1	1	2	3	4	5	unimanual	3.25	0.5	True	first_horizon	21.46	6.0	3.0	2 1 4 1 4 2	2 1 4 1 4 3	18.75	22.5	58.75056404154748	0	58.75056508334819	0.5	1.006320597215866
1	1	2	3	4	6	unimanual	3.25	0.5	True	first_horizon	24.12	4.0	3.0	1 3 4 2 4 2	1 3 4 3 4 2	22.5	26.25	62.50054920837283	0	62.500550208380446	0.5	1.0367817361063014
1	1	2	3	4	7	unimanual	3.25	0.5	True	first_horizon	28.96	6.0	3.0	3 2 3 4 2 1	3 2 3 4 2 3	26.25	30.0	66.25055162492208	0	66.2505526249297	0.5	0.5006409722263925
1	1	2	3	4	0	unimanual	3.25	0.5	True					3 4 1 3 2 3	3 4 1 3 2 3	0.0	3.75	40.00071699998807	0	40.000717999995686	0.0	
1	1	2	3	4	1	unimanual	3.25	0.5	True					3 4 2 4 2 4	3 4 2 4 2 4	3.75	7.5	43.75059512502048	0	43.750596125028096	0.5	0.7896389583474956
1	1	2	3	4	2	unimanual	3.25	0.5	True	first_horizon	9.67	5.0	2.0	2 3 4 3 4 1	2 3 4 3 2 1	7.5	11.25	47.50056058331393	0	47.50056158332154	0.5	0.7948604687408078
1	1	2	3	4	3	unimanual	3.25	0.5	True					4 3 4 3 4 2	4 3 4 3 4 2	11.25	15.0	51.2507958333008	0	51.250796916661784	0.5	0.4174542152904905
1	1	2	3	4	4	unimanual	3.25	0.5	True					2 3 2 1 4 2	2 3 2 1 4 2	15.0	18.75	55.00097162509337	0	55.00097287504468	0.5	0.426114131968158
1	1	2	3	4	5	unimanual	3.25	0.5	True	first_horizon	21.46	6.0	3.0	2 1 4 1 4 2	2 1 4 1 4 3	18.75	22.5	58.75058533332776	0	58.75058633333538	0.3333333333333333	0.4713694652891718
1	1	2	3	4	6	unimanual	3.25	0.5	True	first_horizon	24.12	4.0	3.0	1 3 4 2 4 2	1 3 4 3 4 2	22.5	26.25	62.500566750066355	0	62.50056775007397	0.1666666666666666	0.2918952291753764
1	1	2	3	4	7	unimanual	3.25	0.5	True	first_horizon	28.96	6.0	3.0	3 2 3 4 2 1	3 2 3 4 2 3	26.25	30.0	66.25056683330331	0	66.25056779163424	0.5	0.4688456388927686
1	1	2	3	4	0	unimanual	3.25	0.5	True					3 4 1 3 2 3	3 4 1 3 2 3	0.0	3.75	40.000752166612074	0	40.000753124943	0.0	1.1304667082149535
1	1	2	3	4	1	unimanual	3.25	0.5	True					3 4 2 4 2 4	3 4 2 4 2 4	3.75	7.5	43.75066187500488	0	43.750662875012495	0.8333333333333334	0.2537688541730555
1	1	2	3	4	2	unimanual	3.25	0.5	True	first_horizon	9.67	5.0	2.0	2 3 4 3 4 1	2 3 4 3 2 1	7.5	11.25	47.50060212495737	0	47.50060316664167	0.8333333333333334	0.2043212222245832
1	1	2	3	4	3	unimanual	3.25	0.5	True					4 3 4 3 4 2	4 3 4 3 4 2	11.25	15.0	51.25058450002689	0	51.25058554159477	1.0	0.366903840273153
1	1	2	3	4	4	unimanual	3.25	0.5	True					2 3 2 1 4 2	2 3 2 1 4 2	15.0	18.75	55.000535249942914	0	55.000536374980584	1.0	0.2782133888880101
1	1	2	3	4	5	unimanual	3.25	0.5	True	first_horizon	21.46	6.0	3.0	2 1 4 1 4 2	2 1 4 1 4 3	18.75	22.5	58.7506000000285	0	58.75060104159638	0.8333333333333334	0.2201968194373572
1	1	2	3	4	6	unimanual	3.25	0.5	True	first_horizon	24.12	4.0	3.0	1 3 4 2 4 2	1 3 4 3 4 2	22.5	26.25	62.500626958324574	0	62.500628000008874	0.8333333333333334	0.2841796527888315
1	1	2	3	4	7	unimanual	3.25	0.5	True	first_horizon	28.96	6.0	3.0	3 2 3 4 2 1	3 2 3 4 2 3	26.25	30.0	66.250572833349	0	66.2505738750333	0.0	0.5442070083459839
1	1	2	3	4	0	unimanual	3.25	0.5	True	second_horizon	2.17	6.0	1.0	3 1 4 2 3 2	3 1 4 2 3 1	0.0	3.75	43.00072858331259	0	43.00072954164352	0.8333333333333334	0.3395263888911965
1	1	2	3	4	1	unimanual	3.25	0.5	True					2 4 2 4 2 1	2 4 2 4 2 1	3.75	7.5	46.75055195833556	0	46.75055295834318	1.0	0.2521416041612004
1	1	2	3	4	2	unimanual	3.25	0.5	True					2 1 2 1 4 2	2 1 2 1 4 2	7.5	11.25	50.50058191665448	0	50.5005829166621	1.0	0.1946317569430296
1	1	2	3	4	3	unimanual	3.25	0.5	True					2 1 3 2 3 2	2 1 3 2 3 2	11.25	15.0	54.250622874940746	0	54.25062387494836	1.0	0.223760041660474
1	1	2	3	4	4	unimanual	3.25	0.5	True	second_horizon	16.08	4.0	3.0	4 1 4 1 4 1	4 1 4 3 4 1	15.0	18.75	58.00054704165086	0	58.00054804165848	0.8333333333333334	0.2669786805636249
1	1	2	3	4	5	unimanual	3.25	0.5	True	first_horizon	19.29	2.0	4.0	2 3 1 3 4 2	2 4 1 3 4 2	18.75	22.5	61.75054574990645	0	61.750546749914065	0.8333333333333334	0.2837565277586691
1	1	2	3	4	6	unimanual	3.25	0.5	True	second_horizon	24.67	6.0	1.0	4 1 4 3 4 2	4 1 4 3 4 1	22.5	26.25	65.50059137493372	0	65.50059233326465	1.0	0.361517902793518
1	1	2	3	4	7	unimanual	3.25	0.5	True					4 2 4 3 4 2	4 2 4 3 4 2	26.25	30.0	69.25062604167033	0	69.25062695832457	1.0	0.3765520278053979
1	1	2	3	4	0	unimanual	3.25	0.5	True	second_horizon	2.17	6.0	1.0	3 1 4 2 3 2	3 1 4 2 3 1	0.0	3.75	43.00080833316315	0	43.000809374963865	0.6666666666666666	0.5092468819542167
1	1	2	3	4	1	unimanual	3.25	0.5	True					2 4 2 4 2 1	2 4 2 4 2 1	3.75	7.5	46.75058687501587	0	46.75058795826044	1.0	0.405705472221598
1	1	2	3	4	2	unimanual	3.25	0.5	True					2 1 2 1 4 2	2 1 2 1 4 2	7.5	11.25	50.50058129162062	0	50.500582374981605	0.8333333333333334	0.4357860833212423
1	1	2	3	4	3	unimanual	3.25	0.5	True					2 1 3 2 3 2	2 1 3 2 3 2	11.25	15.0	54.25060949998442	0	54.25061058322899	1.0	0.2960912083314421
1	1	2	3	4	4	unimanual	3.25	0.5	True	second_horizon	16.08	4.0	3.0	4 1 4 1 4 1	4 1 4 3 4 1	15.0	18.75	58.00059812492691	0	58.00059924996458	0.8333333333333334	0.457380819444855
1	1	2	3	4	5	unimanual	3.25	0.5	True	first_horizon	19.29	2.0	4.0	2 3 1 3 4 2	2 4 1 3 4 2	18.75	22.5	61.750582666601986	0	61.750583791639656	1.0	0.4927331805423212
1	1	2	3	4	6	unimanual	3.25	0.5	True	second_horizon	24.67	6.0	1.0	4 1 4 3 4 2	4 1 4 3 4 1	22.5	26.25	65.50062529160641	0	65.5006263749674	0.5	0.636179216648452
1	1	2	3	4	7	unimanual	3.25	0.5	True					4 2 4 3 4 2	4 2 4 3 4 2	26.25	30.0	69.25066112494096	0	69.25066220818553	0.8333333333333334	0.3933463402790949
1	1	2	3	4	0	unimanual	3.25	0.5	True	first_horizon	2.17	5.0	4.0	1 4 3 1 3 1	1 4 3 1 4 1	0.0	3.75	148.00086262496188	0	148.00086366664618	0.6666666666666666	0.3791938402767603
1	1	2	3	4	1	unimanual	3.25	0.5	True	first_horizon	6.46	6.0	3.0	4 3 4 3 2 4	4 3 4 3 2 3	3.75	7.5	151.750596083235	0	151.7505970832426	0.6666666666666666	0.511267173589052
1	1	2	3	4	2	unimanual	3.25	0.5	True					1 2 3 4 3 4	1 2 3 4 3 4	7.5	11.25	155.50057404162362	0	155.5005750831915	1.0	0.283915590281443
1	1	2	3	4	3	unimanual	3.25	0.5	True					2 1 3 1 3 2	2 1 3 1 3 2	11.25	15.0	159.2505877915537	0	159.250588833238	0.8333333333333334	0.4613698055618442
1	1	2	3	4	4	unimanual	3.25	0.5	True					1 2 1 3 1 3	1 2 1 3 1 3	15.0	18.75	163.00055150000844	0	163.00055250001606	0.6666666666666666	0.3071593819380117
1	1	2	3	4	5	unimanual	3.25	0.5	True	second_horizon	20.38	5.0	4.0	2 3 2 3 2 1	2 3 2 3 4 1	18.75	22.5	166.75056204164866	0	166.75056304165628	1.0	0.3834792222090376
1	1	2	3	4	6	unimanual	3.25	0.5	True					3 4 1 4 1 4	3 4 1 4 1 4	22.5	26.25	170.50058420817368	0	170.50058516662102	1.0	0.2739625277657372
1	1	2	3	4	7	unimanual	3.25	0.5	True	first_horizon	26.79	2.0	1.0	2 4 3 2 3 4	2 1 3 2 3 4	26.25	30.0	174.25061295821797	0	174.2506140000187	0.8333333333333334	0.4595402499932485
1	1	2	3	4	0	unimanual	3.25	0.5	True					1 2 3 1 2 4	1 2 3 1 2 4	0.0	3.75	113.00091766682452	0	113.00091870839242	1.0	0.3461341180567008
1	1	2	3	4	1	unimanual	3.25	0.5	True	first_horizon	4.83	3.0	4.0	4 1 2 1 4 2	4 1 4 1 4 2	3.75	7.5	116.75060670846142	0	116.7506077918224	0.8333333333333334	0.4003273264000502
1	1	2	3	4	2	unimanual	3.25	0.5	True	first_horizon	8.04	2.0	1.0	2 3 4 3 4 2	2 1 4 3 4 2	7.5	11.25	120.50056075002068	0	120.50056183338164	0.8333333333333334	0.3781753958319314
1	1	2	3	4	3	unimanual	3.25	0.5	True					4 1 2 4 2 1	4 1 2 4 2 1	11.25	15.0	124.25058416684624	0	124.25058520841412	1.0	0.2392083750067589
1	1	2	3	4	4	unimanual	3.25	0.5	True	second_horizon	17.17	6.0	4.0	1 3 1 3 2 3	1 3 1 3 2 4	15.0	18.75	128.0006235417677	0	128.00062454177532	1.0	0.2753102777836223
1	1	2	3	4	5	unimanual	3.25	0.5	True					4 3 1 4 1 4	4 3 1 4 1 4	18.75	22.5	131.75058366684243	0	131.75058479176369	0.8333333333333334	0.3326713958328279
1	1	2	3	4	6	unimanual	3.25	0.5	True					1 4 2 3 2 1	1 4 2 3 2 1	22.5	26.25	135.5006186667597	0	135.50061979179736	1.0	0.2211818263943617
1	1	2	3	4	7	unimanual	3.25	0.5	True	first_horizon	26.79	2.0	4.0	1 2 3 2 3 2	1 4 3 2 3 2	26.25	30.0	139.2506938750157	0	139.25069491681643	0.8333333333333334	0.3208890416620609
1	1	2	3	4	0	unimanual	3.25	0.5	True					1 2 3 1 2 4	1 2 3 1 2 4	0.0	3.75	113.00086687505244	0	113.00086791662034	1.0	0.3018965139053762
1	1	2	3	4	1	unimanual	3.25	0.5	True	first_horizon	4.83	3.0	4.0	4 1 2 1 4 2	4 1 4 1 4 2	3.75	7.5	116.75061895838007	0	116.75062004162464	0.8333333333333334	0.291881993044323
1	1	2	3	4	2	unimanual	3.25	0.5	True	first_horizon	8.04	2.0	1.0	2 3 4 3 4 2	2 1 4 3 4 2	7.5	11.25	120.500611375086	0	120.500612458447	0.8333333333333334	0.3002987569392037
1	1	2	3	4	3	unimanual	3.25	0.5	True					4 1 2 4 2 1	4 1 2 4 2 1	11.25	15.0	124.25064341665713	0	124.2506445000181	1.0	0.2169672083303643
1	1	2	3	4	4	unimanual	3.25	0.5	True	second_horizon	17.17	6.0	4.0	1 3 1 3 2 3	1 3 1 3 2 4	15.0	18.75	128.0005725416122	0	128.0005735416198	0.8333333333333334	0.2672602361029324
1	1	2	3	4	5	unimanual	3.25	0.5	True					4 3 1 4 1 4	4 3 1 4 1 4	18.75	22.5	131.75058445846662	0	131.75058545847423	1.0	0.2225349097473857
1	1	2	3	4	6	unimanual	3.25	0.5	True					1 4 2 3 2 1	1 4 2 3 2 1	22.5	26.25	135.50063945841976	0	135.5006406250177	1.0	0.2080186736226702
1	1	2	3	4	7	unimanual	3.25	0.5	True	first_horizon	26.79	2.0	4.0	1 2 3 2 3 2	1 4 3 2 3 2	26.25	30.0	139.2507329999935	0	139.2507340416778	0.8333333333333334	0.282157020837379
1	1	2	3	4	0	unimanual	3.25	0.5	True					1 2 3 1 2 4	1 2 3 1 2 4	0.0	3.75	113.00087308336516	0	113.00087416660972	0.6666666666666666	0.7574054687283933
1	1	2	3	4	1	unimanual	3.25	0.5	True	first_horizon	4.83	3.0	4.0	4 1 2 1 4 2	4 1 4 1 4 2	3.75	7.5	116.75059616658837	0	116.75059725006577	0.3333333333333333	0.7731459375063423
1	1	2	3	4	2	unimanual	3.25	0.5	True	first_horizon	8.04	2.0	1.0	2 3 4 3 4 2	2 1 4 3 4 2	7.5	11.25	120.5006308334414	0	120.50063191668596	0.3333333333333333	0.9531971111039942
1	1	2	3	4	3	unimanual	3.25	0.5	True					4 1 2 4 2 1	4 1 2 4 2 1	11.25	15.0	124.2506057083374	0	124.25060679158196	0.6666666666666666	0.670386281242827
1	1	2	3	4	4	unimanual	3.25	0.5	True	second_horizon	17.17	6.0	4.0	1 3 1 3 2 3	1 3 1 3 2 4	15.0	18.75	128.00061354169156	0	128.00061466661282	0.8333333333333334	0.4557121875113807
1	1	2	3	4	5	unimanual	3.25	0.5	True					4 3 1 4 1 4	4 3 1 4 1 4	18.75	22.5	131.75062399997842	0	131.75062504166272	0.5	0.6338352499995381
1	1	2	3	4	6	unimanual	3.25	0.5	True					1 4 2 3 2 1	1 4 2 3 2 1	22.5	26.25	135.50059783342294	0	135.50059887499083	1.0	0.4866214166589391
1	1	2	3	4	7	unimanual	3.25	0.5	True	first_horizon	26.79	2.0	4.0	1 2 3 2 3 2	1 4 3 2 3 2	26.25	30.0	139.25059670838527	0	139.25059779162984	0.6666666666666666	0.6234115083236247
1	1	2	3	4	0	unimanual	3.25	0.5	True					1 2 3 1 2 4	1 2 3 1 2 4	0.0	3.75	113.00082645833028	0	113.00082745833788	1.0	0.233744881930761
1	1	2	3	4	1	unimanual	3.25	0.5	True	first_horizon	4.83	3.0	4.0	4 1 2 1 4 2	4 1 4 1 4 2	3.75	7.5	116.75057983328588	0	116.7505808332935	1.0	0.3676950000032472
1	1	2	3	4	2	unimanual	3.25	0.5	True	first_horizon	8.04	2.0	1.0	2 3 4 3 4 2	2 1 4 3 4 2	7.5	11.25	120.50059270835482	0	120.50059366668576	0.6666666666666666	0.4385156041632096
1	1	2	3	4	3	unimanual	3.25	0.5	True					4 1 2 4 2 1	4 1 2 4 2 1	11.25	15.0	124.25056849990506	0	124.25056954170576	1.0	0.2219358263731313
1	1	2	3	4	4	unimanual	3.25	0.5	True	second_horizon	17.17	6.0	4.0	1 3 1 3 2 3	1 3 1 3 2 4	15.0	18.75	128.00057987496257	0	128.00058087497018	0.8333333333333334	0.2254330277986203
1	1	2	3	4	5	unimanual	3.25	0.5	True					4 3 1 4 1 4	4 3 1 4 1 4	18.75	22.5	131.75056104164105	0	131.75056199997198	0.8333333333333334	0.3948703194619156
1	1	2	3	4	6	unimanual	3.25	0.5	True					1 4 2 3 2 1	1 4 2 3 2 1	22.5	26.25	135.50059629173484	0	135.50059729174245	1.0	0.1937714514012138
1	1	2	3	4	7	unimanual	3.25	0.5	True	first_horizon	26.79	2.0	4.0	1 2 3 2 3 2	1 4 3 2 3 2	26.25	30.0	139.25061145832296	0	139.25061249989085	0.8333333333333334	0.2747184236068278
1	1	2	3	4	0	unimanual	3.25	0.5	True	second_horizon	0.54	3.0	3.0	3 1 4 2 3 1	3 1 3 2 3 1	0.0	3.75	78.00064466672484	0	78.00064570840914	1.0	0.3770165069339176
1	1	2	3	4	1	unimanual	3.25	0.5	True	second_horizon	4.29	3.0	3.0	1 4 2 1 3 1	1 4 3 1 3 1	3.75	7.5	81.75056683330331	0	81.75056791678071	1.0	0.2922869652587299
1	1	2	3	4	2	unimanual	3.25	0.5	True					2 4 1 3 2 3	2 4 1 3 2 3	7.5	11.25	85.50059266667813	0	85.50059370836243	0.3333333333333333	0.6040099083445967
1	1	2	3	4	3	unimanual	3.25	0.5	True					2 1 2 3 2 1	2 1 2 3 2 1	11.25	15.0	89.25059375003912	0	89.25059487496037	1.0	0.2726893749980566
1	1	2	3	4	4	unimanual	3.25	0.5	True	first_horizon	16.08	3.0	4.0	1 2 3 1 2 1	1 2 4 1 2 1	15.0	18.75	93.00055812497158	0	93.00055916677228	0.8333333333333334	0.2986863124921607
1	1	2	3	4	5	unimanual	3.25	0.5	True					4 3 4 1 4 1	4 3 4 1 4 1	18.75	22.5	96.7505564999301	0	96.7505575834075	1.0	0.4948060139043567
1	1	2	3	4	6	unimanual	3.25	0.5	True					4 2 4 3 1 2	4 2 4 3 1 2	22.5	26.25	100.50055020838045	0	100.50055129174144	1.0	0.3587820069709171
1	1	2	3	4	7	unimanual	3.25	0.5	True	first_horizon	28.42	5.0	1.0	4 3 4 3 4 3	4 3 4 3 1 3	26.25	30.0	104.2505630417727	0	104.25056412501726	0.8333333333333334	0.4538621166488156
1	1	2	3	4	0	unimanual	3.25	0.5	True					4 3 1 4 3 4	4 3 1 4 3 4	0.0	3.75	113.00065645831636	0	113.0006574166473	1.0	0.3441822222084738
1	1	2	3	4	1	unimanual	3.25	0.5	True	second_horizon	4.83	4.0	4.0	1 4 3 2 1 2	1 4 3 4 1 2	3.75	7.5	116.750634624972	0	116.75063562497962	1.0	0.2874258055429284
1	1	2	3	4	2	unimanual	3.25	0.5	True					1 3 2 1 4 1	1 3 2 1 4 1	7.5	11.25	120.50052875000983	0	120.50052979157772	1.0	0.2385243958366724
1	1	2	3	4	3	unimanual	3.25	0.5	True	second_horizon	11.79	3.0	3.0	2 4 1 4 2 3	2 4 3 4 2 3	11.25	15.0	124.25058091664688	0	124.25058195833115	1.0	0.4419367986071544
1	1	2	3	4	4	unimanual	3.25	0.5	True	second_horizon	15.54	3.0	1.0	1 2 4 3 2 1	1 2 1 3 2 1	15.0	18.75	128.0005114999367	0	128.000512541621	1.0	0.3320240902830846
1	1	2	3	4	5	unimanual	3.25	0.5	True	second_horizon	19.29	3.0	4.0	3 2 3 2 1 4	3 2 4 2 1 4	18.75	22.5	131.75054837495554	0	131.75054937496316	1.0	0.3366793541548152
1	1	2	3	4	6	unimanual	3.25	0.5	True					3 2 1 3 2 4	3 2 1 3 2 4	22.5	26.25	135.5005484999856	0	135.50054954155348	1.0	0.3268265555573937
1	1	2	3	4	7	unimanual	3.25	0.5	True					1 2 1 2 1 3	1 2 1 2 1 3	26.25	30.0	139.25061037496198	0	139.2506113749696	1.0	0.2438803333207033
1	1	2	3	4	0	unimanual	3.25	0.5	True					4 3 1 4 3 4	4 3 1 4 3 4	0.0	3.75	113.00070562504698	0	113.00070666661486	1.0	0.2568589236276845
1	1	2	3	4	1	unimanual	3.25	0.5	True	second_horizon	4.83	4.0	4.0	1 4 3 2 1 2	1 4 3 4 1 2	3.75	7.5	116.75056287506597	0	116.75056383339688	1.0	0.2863122708319376
1	1	2	3	4	2	unimanual	3.25	0.5	True					1 3 2 1 4 1	1 3 2 1 4 1	7.5	11.25	120.50055945839269	0	120.50056045840029	1.0	0.2288663124976059
1	1	2	3	4	3	unimanual	3.25	0.5	True	second_horizon	11.79	3.0	3.0	2 4 1 4 2 3	2 4 3 4 2 3	11.25	15.0	124.2505735416198	0	124.25057450006716	1.0	0.3342502986391385
1	1	2	3	4	4	unimanual	3.25	0.5	True	second_horizon	15.54	3.0	1.0	1 2 4 3 2 1	1 2 1 3 2 1	15.0	18.75	128.00068570836447	0	128.0006866666954	0.8333333333333334	0.318827847232266
1	1	2	3	4	5	unimanual	3.25	0.5	True	second_horizon	19.29	3.0	4.0	3 2 3 2 1 4	3 2 4 2 1 4	18.75	22.5	131.7505816250341	0	131.75058262504172	1.0	0.3725761666816349
1	1	2	3	4	6	unimanual	3.25	0.5	True					3 2 1 3 2 4	3 2 1 3 2 4	22.5	26.25	135.50053175003268	0	135.50053279160056	1.0	0.2817740139046994
1	1	2	3	4	7	unimanual	3.25	0.5	True					1 2 1 2 1 3	1 2 1 2 1 3	26.25	30.0	139.25055529165547	0	139.2505562916631	1.0	0.3090476458310149
1	1	2	3	4	0	unimanual	3.25	0.5	True	first_horizon	2.71	6.0	1.0	2 3 4 1 3 2	2 3 4 1 3 1	0.0	3.75	148.0006856666878	0	148.00068675004877	1.0	0.4505583333278385
1	1	2	3	4	1	unimanual	3.25	0.5	True	first_horizon	4.83	3.0	2.0	4 1 4 3 2 4	4 1 2 3 2 4	3.75	7.5	151.75057329167612	0	151.75057433336042	0.6666666666666666	0.3456600347223381
1	1	2	3	4	2	unimanual	3.25	0.5	True	second_horizon	9.67	6.0	2.0	1 2 4 1 4 1	1 2 4 1 4 2	7.5	11.25	155.5005445833085	0	155.50054562510925	1.0	0.2865691597301823
1	1	2	3	4	3	unimanual	3.25	0.5	True					3 4 3 4 1 2	3 4 3 4 1 2	11.25	15.0	159.25055683334358	0	159.25055791670457	1.0	0.4143280833377503
1	1	2	3	4	4	unimanual	3.25	0.5	True	second_horizon	16.08	4.0	2.0	3 2 4 3 1 2	3 2 4 2 1 2	15.0	18.75	163.0005834583426	0	163.00058454170355	0.8333333333333334	0.4279047638798753
1	1	2	3	4	5	unimanual	3.25	0.5	True					2 3 4 1 2 4	2 3 4 1 2 4	18.75	22.5	166.75058262504172	0	166.75058366672602	1.0	0.3219308194432718
1	1	2	3	4	6	unimanual	3.25	0.5	True					3 1 2 1 3 4	3 1 2 1 3 4	22.5	26.25	170.5007027082611	0	170.5007037500618	0.6666666666666666	0.4297392083293137
1	1	2	3	4	7	unimanual	3.25	0.5	True					1 3 4 2 4 2	1 3 4 2 4 2	26.25	30.0	174.25058487500064	0	174.25058591668494	1.0	0.3004471319533574
1	1	2	3	4	0	unimanual	3.25	0.5	True	first_horizon	2.71	6.0	1.0	2 3 4 1 3 2	2 3 4 1 3 1	0.0	3.75	148.00092045834754	0	148.00092150003184	0.0	
1	1	2	3	4	1	unimanual	3.25	0.5	True	first_horizon	4.83	3.0	2.0	4 1 4 3 2 4	4 1 2 3 2 4	3.75	7.5	151.75064945837948	0	151.75065049994737	0.0	
1	1	2	3	4	2	unimanual	3.25	0.5	True	second_horizon	9.67	6.0	2.0	1 2 4 1 4 1	1 2 4 1 4 2	7.5	11.25	155.5008007499855	0	155.50080174999312	0.0	
1	1	2	3	4	3	unimanual	3.25	0.5	True					3 4 3 4 1 2	3 4 3 4 1 2	11.25	15.0	159.25083250005264	0	159.25083345838357	0.0	
1	1	2	3	4	4	unimanual	3.25	0.5	True	second_horizon	16.08	4.0	2.0	3 2 4 3 1 2	3 2 4 2 1 2	15.0	18.75	163.00060791661963	0	163.00060891662724	0.0	
1	1	2	3	4	5	unimanual	3.25	0.5	True					2 3 4 1 2 4	2 3 4 1 2 4	18.75	22.5	166.75059487496037	0	166.75059583340771	0.0	
1	1	2	3	4	6	unimanual	3.25	0.5	True					3 1 2 1 3 4	3 1 2 1 3 4	22.5	26.25	170.5006028333446	0	170.50060383335222	0.0	
1	1	2	3	4	7	unimanual	3.25	0.5	True					1 3 4 2 4 2	1 3 4 2 4 2	26.25	30.0	174.25057945831213	0	174.25058037496638	0.0	
1	1	2	3	4	0	unimanual	3.25	0.5	True	first_horizon	2.71	6.0	1.0	2 3 4 1 3 2	2 3 4 1 3 1	0.0	3.75	148.00081158336252	0	148.0008125833701	0.5	1.0152086527862896
1	1	2	3	4	1	unimanual	3.25	0.5	True	first_horizon	4.83	3.0	2.0	4 1 4 3 2 4	4 1 2 3 2 4	3.75	7.5	151.75062774994876	0	151.75062883330975	0.8333333333333334	0.5302541180474994
1	1	2	3	4	2	unimanual	3.25	0.5	True	second_horizon	9.67	6.0	2.0	1 2 4 1 4 1	1 2 4 1 4 2	7.5	11.25	155.5007536249468	0	155.50075466674753	1.0	0.3334402708375516
1	1	2	3	4	3	unimanual	3.25	0.5	True					3 4 3 4 1 2	3 4 3 4 1 2	11.25	15.0	159.25060787494294	0	159.25060891674366	1.0	0.3883953194405573
1	1	2	3	4	4	unimanual	3.25	0.5	True	second_horizon	16.08	4.0	2.0	3 2 4 3 1 2	3 2 4 2 1 2	15.0	18.75	163.00058595836165	0	163.0005869999295	0.6666666666666666	0.3263913958217017
1	1	2	3	4	5	unimanual	3.25	0.5	True					2 3 4 1 2 4	2 3 4 1 2 4	18.75	22.5	166.75055074994452	0	166.75055174995214	1.0	0.2825402499875054
1	1	2	3	4	6	unimanual	3.25	0.5	True					3 1 2 1 3 4	3 1 2 1 3 4	22.5	26.25	170.5006382499123	0	170.50063933327328	1.0	0.2613938680733554
1	1	2	3	4	7	unimanual	3.25	0.5	True					1 3 4 2 4 2	1 3 4 2 4 2	26.25	30.0	174.25058891670778	0	174.25058995827567	0.8333333333333334	0.2835985416701684
1	1	2	3	4	0	unimanual	3.25	0.5	True					2 4 1 4 1 3	2 4 1 4 1 3	0.0	3.75	8.000793416751549	0	8.000794416642748	1.0	0.3288079375051893
1	1	2	3	4	1	unimanual	3.25	0.5	True	first_horizon	5.38	4.0	3.0	4 1 4 1 2 3	4 1 4 3 2 3	3.75	7.5	11.750568624935111	0	11.750569624942727	0.8333333333333334	0.2777100763826941
1	1	2	3	4	2	unimanual	3.25	0.5	True					1 4 2 3 4 2	1 4 2 3 4 2	7.5	11.25	15.500977708376013	0	15.500978708267212	1.0	0.2201785486152706
1	1	2	3	4	3	unimanual	3.25	0.5	True					1 4 2 1 4 3	1 4 2 1 4 3	11.25	15.0	19.25061158335302	0	19.250612583360635	1.0	0.2118953194391603
1	1	2	3	4	4	unimanual	3.25	0.5	True					1 3 1 3 2 3	1 3 1 3 2 3	15.0	18.75	23.000591666670516	0	23.000592625001445	1.0	0.2303942222109375
1	1	2	3	4	5	unimanual	3.25	0.5	True	first_horizon	21.46	6.0	1.0	3 2 1 4 2 4	3 2 1 4 2 1	18.75	22.5	26.750618791673332	0	26.750619791680947	0.8333333333333334	0.2709271875016081
1	1	2	3	4	6	unimanual	3.25	0.5	True	second_horizon	23.04	3.0	1.0	4 2 4 3 2 3	4 2 1 3 2 3	22.5	26.25	30.500595374964178	0	30.500596416648477	1.0	0.2869086250041922
1	1	2	3	4	7	unimanual	3.25	0.5	True	second_horizon	28.42	6.0	1.0	4 1 3 4 2 3	4 1 3 4 2 1	26.25	30.0	34.25057287490927	0	34.25057387491688	1.0	0.2489742083319773
1	1	2	3	4	0	unimanual	3.25	0.5	True	first_horizon	0.54	2.0	3.0	1 2 1 4 2 3	1 3 1 4 2 3	0.0	3.75	148.00086512498092	0	148.00086616678163	0.8333333333333334	0.4684781111039531
1	1	2	3	4	1	unimanual	3.25	0.5	True	second_horizon	5.38	5.0	1.0	2 4 3 4 2 3	2 4 3 4 1 3	3.75	7.5	151.75057037500665	0	151.75057137501426	1.0	0.4897016389101433
1	1	2	3	4	2	unimanual	3.25	0.5	True	second_horizon	9.67	6.0	2.0	2 4 3 1 3 1	2 4 3 1 3 2	7.5	11.25	155.50064824998844	0	155.50064924999606	1.0	0.3581734444596804
1	1	2	3	4	3	unimanual	3.25	0.5	True	second_horizon	12.88	5.0	1.0	3 1 2 3 4 2	3 1 2 3 1 2	11.25	15.0	159.25071041681804	0	159.25071145838592	1.0	0.338328104155759
1	1	2	3	4	4	unimanual	3.25	0.5	True					1 2 4 3 1 2	1 2 4 3 1 2	15.0	18.75	163.00056900002528	0	163.00057008338626	1.0	0.2947315347264521
1	1	2	3	4	5	unimanual	3.25	0.5	True					1 2 4 3 2 3	1 2 4 3 2 3	18.75	22.5	166.7506090834504	0	166.750610083458	1.0	0.3218689791780586
1	1	2	3	4	6	unimanual	3.25	0.5	True					1 4 1 4 3 1	1 4 1 4 3 1	22.5	26.25	170.5006000418216	0	170.5006010418292	1.0	0.3669786736136302
1	1	2	3	4	7	unimanual	3.25	0.5	True					2 4 2 3 4 3	2 4 2 3 4 3	26.25	30.0	174.25070345844142	0	174.2507045000093	1.0	0.4258083680567021
1	1	2	3	4	0	unimanual	3.25	0.5	True	first_horizon	1.62	4.0	2.0	4 3 1 3 4 2	4 3 1 2 4 2	0.0	3.75	113.00087475008333	0	113.0008757917676	0.8333333333333334	0.2926582430955022
1	1	2	3	4	1	unimanual	3.25	0.5	True					3 4 2 1 4 1	3 4 2 1 4 1	3.75	7.5	116.75066845817491	0	116.75066950009204	1.0	0.2577466041936229
1	1	2	3	4	2	unimanual	3.25	0.5	True	second_horizon	9.67	6.0	2.0	1 4 1 2 4 3	1 4 1 2 4 2	7.5	11.25	120.50069841672666	0	120.50069945817812	1.0	0.2736711528074617
1	1	2	3	4	3	unimanual	3.25	0.5	True					1 3 1 3 1 3	1 3 1 3 1 3	11.25	15.0	124.25066662509926	0	124.2506677499041	1.0	0.218353652783359
1	1	2	3	4	4	unimanual	3.25	0.5	True					4 1 4 3 1 4	4 1 4 3 1 4	15.0	18.75	128.00068000005558	0	128.00068108318374	1.0	0.2727321249743302
1	1	2	3	4	5	unimanual	3.25	0.5	True	first_horizon	21.46	6.0	4.0	3 2 1 2 1 2	3 2 1 2 1 4	18.75	22.5	131.7506374581717	0	131.75063858320937	1.0	0.3351785555714741
1	1	2	3	4	6	unimanual	3.25	0.5	True					1 4 1 4 1 4	1 4 1 4 1 4	22.5	26.25	135.5006989168469	0	135.5006999168545	1.0	0.2287224235866839
1	1	2	3	4	7	unimanual	3.25	0.5	True	first_horizon	26.79	2.0	2.0	1 4 3 1 2 3	1 2 3 1 2 3	26.25	30.0	139.25067695835605	0	139.25067804171704	0.8333333333333334	0.3005684374754007
1	1	2	3	4	0	unimanual	3.25	0.5	True	first_horizon	1.62	4.0	3.0	4 2 4 2 1 4	4 2 4 3 1 4	0.0	3.75	148.0009029584471	0	148.0009039165452	0.8333333333333334	0.3564632013828183
1	1	2	3	4	1	unimanual	3.25	0.5	True					2 1 4 2 1 3	2 1 4 2 1 3	3.75	7.5	151.750582666602	0	151.7505836666096	0.8333333333333334	0.2344791875220835
1	1	2	3	4	2	unimanual	3.25	0.5	True					3 1 4 2 3 2	3 1 4 2 3 2	7.5	11.25	155.50064716674387	0	155.5006481667515	1.0	0.2624726666448017
1	1	2	3	4	3	unimanual	3.25	0.5	True					3 1 2 1 3 2	3 1 2 1 3 2	11.25	15.0	159.25063379155472	0	159.2506348749157	1.0	0.2231594374946629
1	1	2	3	4	4	unimanual	3.25	0.5	True	second_horizon	15.54	3.0	2.0	4 3 4 1 2 3	4 3 2 1 2 3	15.0	18.75	163.00081616663374	0	163.00081720831804	1.0	0.2808050833409652
1	1	2	3	4	5	unimanual	3.25	0.5	True	first_horizon	19.29	2.0	1.0	3 4 2 1 2 3	3 1 2 1 2 3	18.75	22.5	166.75060699996538	0	166.750607999973	0.8333333333333334	0.3472939514322206
1	1	2	3	4	6	unimanual	3.25	0.5	True					3 4 1 4 2 3	3 4 1 4 2 3	22.5	26.25	170.500586041715	0	170.5005869998131	1.0	0.2807421666802838
1	1	2	3	4	7	unimanual	3.25	0.5	True	second_horizon	28.42	6.0	3.0	2 1 3 2 1 2	2 1 3 2 1 3	26.25	30.0	174.25061479164287	0	174.2506157916505	1.0	0.2834834652797629
12	1	2	3	4	0	unimanual	3.25	0.5	True	second_horizon	1.62	5.0	3.0	3 4 1 2 4 1	3 4 1 2 3 1	0.0	3.75	8.000863291788846	0	8.00086429179646	0.8333333333333334	0.4316652569686994
12	1	2	3	4	1	unimanual	3.25	0.5	True	second_horizon	5.92	6.0	2.0	4 3 1 3 1 4	4 3 1 3 1 2	3.75	7.5	11.750572041841224	0	11.750573083525524	1.0	0.4214611319281782
12	1	2	3	4	2	unimanual	3.25	0.5	True					4 3 1 4 1 3	4 3 1 4 1 3	7.5	11.25	15.500629708636552	0	15.50063066673465	0.6666666666666666	0.5391392847523093
12	1	2	3	4	3	unimanual	3.25	0.5	True					4 3 1 3 1 4	4 3 1 3 1 4	11.25	15.0	19.250662500038743	0	19.25066350004636	1.0	0.3726676597337549
12	1	2	3	4	4	unimanual	3.25	0.5	True					2 4 3 1 2 1	2 4 3 1 2 1	15.0	18.75	23.000550125027075	0	23.00055112503469	0.6666666666666666	0.6124600749928504
12	1	2	3	4	5	unimanual	3.25	0.5	True	second_horizon	20.38	5.0	4.0	2 3 4 3 1 2	2 3 4 3 4 2	18.75	22.5	26.750607083551586	0	26.7506080835592	0.6666666666666666	0.5993387666530907
12	1	2	3	4	6	unimanual	3.25	0.5	True	first_horizon	23.04	2.0	4.0	1 2 1 3 2 3	1 4 1 3 2 3	22.5	26.25	30.50067412503995	0	30.500675125047565	0.8333333333333334	0.4737074722846349
12	1	2	3	4	7	unimanual	3.25	0.5	True					4 3 1 2 3 4	4 3 1 2 3 4	26.25	30.0	34.25058454181999	0	34.250585541827604	1.0	0.4797009027485425
13	1	2	3	4	0	unimanual	3.25	0.5	True	second_horizon	0.54	3.0	1.0	1 4 3 4 3 4	1 4 1 4 3 4	0.0	3.75	428.00104154180735	0	428.0010425832588	0.5	0.7258338750107214
13	1	2	3	4	1	unimanual	3.25	0.5	True	second_horizon	5.92	6.0	4.0	2 4 2 1 2 1	2 4 2 1 2 4	3.75	7.5	431.7506411250215	0	431.7506421250291	0.5	0.3041147083276883
13	1	2	3	4	2	unimanual	3.25	0.5	True	first_horizon	9.67	5.0	1.0	1 3 1 4 3 2	1 3 1 4 1 2	7.5	11.25	435.5005367500707	0	435.5005378751084	0.8333333333333334	0.4952747083346669
13	1	2	3	4	3	unimanual	3.25	0.5	True					1 3 4 2 3 4	1 3 4 2 3 4	11.25	15.0	439.2510104167741	0	439.25101150013506	0.6666666666666666	0.4060669166889663
13	1	2	3	4	4	unimanual	3.25	0.5	True					1 4 2 1 2 3	1 4 2 1 2 3	15.0	18.75	443.0005666250363	0	443.0005676250439	1.0	0.3691265555486704
13	1	2	3	4	5	unimanual	3.25	0.5	True					1 2 4 3 4 2	1 2 4 3 4 2	18.75	22.5	446.75056812516414	0	446.75056912517175	0.5	0.5233640083577484
13	1	2	3	4	6	unimanual	3.25	0.5	True	second_horizon	23.04	3.0	1.0	2 3 4 3 1 2	2 3 1 3 1 2	22.5	26.25	450.50062212510966	0	450.5006231251173	0.3333333333333333	1.0545254722237587
13	1	2	3	4	7	unimanual	3.25	0.5	True					1 3 4 2 4 1	1 3 4 2 4 1	26.25	30.0	454.250557041727	0	454.250558125088	1.0	0.3930270277972643
14	1	2	3	4	0	unimanual	3.25	0.5	True	first_horizon	0.54	2.0	2.0	1 4 3 4 3 1	1 2 3 4 3 1	0.0	3.75	113.00083679170348	0	113.00083783338778	0.6666666666666666	0.5331694860942662
14	1	2	3	4	1	unimanual	3.25	0.5	True					2 4 3 1 2 1	2 4 3 1 2 1	3.75	7.5	116.75058737513608	0	116.7505883751437	1.0	0.4694440486297632
14	1	2	3	4	2	unimanual	3.25	0.5	True					3 2 3 1 4 2	3 2 3 1 4 2	7.5	11.25	120.5006326250732	0	120.5006336667575	0.8333333333333334	0.4949005000138034
14	1	2	3	4	3	unimanual	3.25	0.5	True					2 3 2 3 4 1	2 3 2 3 4 1	11.25	15.0	124.25056158332154	0	124.25056266668253	1.0	0.4365510624678184
14	1	2	3	4	4	unimanual	3.25	0.5	True	first_horizon	16.62	4.0	4.0	1 4 3 2 1 4	1 4 3 4 1 4	15.0	18.75	128.00055050011724	0	128.00055145821534	0.8333333333333334	0.4809355347339685
14	1	2	3	4	5	unimanual	3.25	0.5	True					1 2 1 3 4 1	1 2 1 3 4 1	18.75	22.5	131.75056029180996	0	131.7505612501409	1.0	0.4333236180633927
14	1	2	3	4	6	unimanual	3.25	0.5	True	first_horizon	23.58	3.0	1.0	1 2 4 3 1 3	1 2 1 3 1 3	22.5	26.25	135.5005875832867	0	135.5005885832943	1.0	0.4309615555296962
14	1	2	3	4	7	unimanual	3.25	0.5	True	second_horizon	27.88	5.0	2.0	2 4 1 3 4 1	2 4 1 3 2 1	26.25	30.0	139.2505312501453	0	139.2505322918296	1.0	0.4325765763642266
4	1	2	3	4	0	unimanual	3.25	0.5	True	first_horizon	1.08	3.0	3.0	1 2 4 1 3 1	1 2 3 1 3 1	0.0	3.75	148.0007992084138	0	148.0008002500981	0.6666666666666666	0.6856408333405852
4	1	2	3	4	1	unimanual	3.25	0.5	True					4 2 3 1 4 1	4 2 3 1 4 1	3.75	7.5	151.75069037498906	0	151.75069141667336	1.0	0.5079638472137352
4	1	2	3	4	2	unimanual	3.25	0.5	True	second_horizon	8.04	3.0	3.0	4 2 1 4 3 1	4 2 3 4 3 1	7.5	11.25	155.5005383749958	0	155.50053937500343	0.8333333333333334	0.6103033833671361
4	1	2	3	4	3	unimanual	3.25	0.5	True					4 3 4 1 4 3	4 3 4 1 4 3	11.25	15.0	159.25063187489286	0	159.25063299993053	1.0	0.4567422083346173
4	1	2	3	4	4	unimanual	3.25	0.5	True	first_horizon	17.17	5.0	4.0	4 1 4 3 2 1	4 1 4 3 4 1	15.0	18.75	163.00056995847262	0	163.0005710418336	1.0	0.4221740069721515
4	1	2	3	4	5	unimanual	3.25	0.5	True					2 1 4 2 4 2	2 1 4 2 4 2	18.75	22.5	166.75060499995016	0	166.75060608354397	0.5	0.6018892583437264
4	1	2	3	4	6	unimanual	3.25	0.5	True					3 2 1 2 3 4	3 2 1 2 3 4	22.5	26.25	170.5009966667276	0	170.5009978748858	0.6666666666666666	0.6466149833519012
4	1	2	3	4	7	unimanual	3.25	0.5	True	second_horizon	26.79	3.0	4.0	2 3 2 1 4 2	2 3 4 1 4 2	26.25	30.0	174.25057462509722	0	174.25057574990203	0.8333333333333334	0.5351743250153959
1	1	2	3	4	0	unimanual	3.25	0.5	True	second_horizon	1.62	5.0	3.0	3 1 2 1 4 1	3 1 2 1 3 1	0.0	3.75	148.00081025000327	322	0.0066854583346867	1.0	0.4087338541673186
1	1	2	3	4	1	unimanual	3.25	0.5	True	first_horizon	5.92	5.0	3.0	3 2 3 2 4 2	3 2 3 2 3 2	3.75	7.5	151.75059562499882	332	0.0202961249960935	1.0	0.444968729167158
1	1	2	3	4	2	unimanual	3.25	0.5	True					4 2 4 1 4 1	4 2 4 1 4 1	7.5	11.25	155.5006281249989	341	0.4754171666645561	1.0	0.4368047291670033
1	1	2	3	4	3	unimanual	3.25	0.5	True	second_horizon	12.33	4.0	3.0	3 4 2 4 1 2	3 4 2 3 1 2	11.25	15.0	159.25068800000372	353	0.2426493750026566	1.0	0.3811771111104463
1	1	2	3	4	4	unimanual	3.25	0.5	True					3 1 2 4 2 3	3 1 2 4 2 3	15.0	18.75	163.0006822500036	364	0.2812715416730498	1.0	0.4182482152779509
1	1	2	3	4	5	unimanual	3.25	0.5	True					4 3 2 4 1 3	4 3 2 4 1 3	18.75	22.5	166.75056075000248	376	0.1635818750000908	1.0	0.3926834374991206
1	1	2	3	4	6	unimanual	3.25	0.5	True					4 3 2 4 3 1	4 3 2 4 3 1	22.5	26.25	170.50057204166296	386	0.2040334999983315	1.0	0.3541067777769058
1	1	2	3	4	7	unimanual	3.25	0.5	True	second_horizon	27.88	5.0	3.0	1 3 2 1 2 4	1 3 2 1 3 4	26.25	30.0	174.2506920416672	397	0.2338744166627293	1.0	0.3403987361113347
1	1	2	3	4	0	unimanual	3.25	0.5	True	second_horizon	1.62	5.0	3.0	3 1 2 1 4 1	3 1 2 1 3 1	0.0	3.75	148.0008827083293	1	148.00088370832964	0.0	
1	1	2	3	4	1	unimanual	3.25	0.5	True	first_horizon	5.92	5.0	3.0	3 2 3 2 4 2	3 2 3 2 3 2	3.75	7.5	151.75062629166496	1	151.7506272916653	0.0	0.8709931458324718
1	1	2	3	4	2	unimanual	3.25	0.5	True					4 2 4 1 4 1	4 2 4 1 4 1	7.5	11.25	155.50066895833152	2	0.1145911249986966	0.0	
1	1	2	3	4	3	unimanual	3.25	0.5	True	second_horizon	12.33	4.0	3.0	3 4 2 4 1 2	3 4 2 3 1 2	11.25	15.0	159.2505829583315	3	1.8141194166673813	0.1666666666666666	1.664925083336129
1	1	2	3	4	4	unimanual	3.25	0.5	True					3 1 2 4 2 3	3 1 2 4 2 3	15.0	18.75	163.0006258749927	3	5.564162458336796	0.0	
1	1	2	3	4	5	unimanual	3.25	0.5	True					4 3 2 4 1 3	4 3 2 4 1 3	18.75	22.5	166.75080170833098	7	0.2546394583405345	0.0	
1	1	2	3	4	6	unimanual	3.25	0.5	True					4 3 2 4 3 1	4 3 2 4 3 1	22.5	26.25	170.50060891666362	9	1.7192859999995562	0.0	
1	1	2	3	4	7	unimanual	3.25	0.5	True	second_horizon	27.88	5.0	3.0	1 3 2 1 2 4	1 3 2 1 3 4	26.25	30.0	174.25059295832762	10	1.755952958323178	0.0	
1	1	2	3	4	0	unimanual	3.25	0.5	True	second_horizon	1.62	5.0	3.0	3 1 2 1 4 1	3 1 2 1 3 1	0.0	3.75	148.00088975000108	1	148.000890708332	0.0	
1	1	2	3	4	1	unimanual	3.25	0.5	True	first_horizon	5.92	5.0	3.0	3 2 3 2 4 2	3 2 3 2 3 2	3.75	7.5	151.7505554166637	1	151.75055645832617	0.0	
1	1	2	3	4	2	unimanual	3.25	0.5	True					4 2 4 1 4 1	4 2 4 1 4 1	7.5	11.25	155.50055058333237	1	155.5005515833327	0.0	
1	1	2	3	4	3	unimanual	3.25	0.5	True	second_horizon	12.33	4.0	3.0	3 4 2 4 1 2	3 4 2 3 1 2	11.25	15.0	159.25057754166482	1	159.25057850000303	0.0	
1	1	2	3	4	4	unimanual	3.25	0.5	True					3 1 2 4 2 3	3 1 2 4 2 3	15.0	18.75	163.00060612500238	1	163.00060720832698	0.0	
1	1	2	3	4	5	unimanual	3.25	0.5	True					4 3 2 4 1 3	4 3 2 4 1 3	18.75	22.5	166.7505788333292	1	166.75057983332954	0.0	
1	1	2	3	4	6	unimanual	3.25	0.5	True					4 3 2 4 3 1	4 3 2 4 3 1	22.5	26.25	170.5005717916647	1	170.50057287500383	0.0	
1	1	2	3	4	7	unimanual	3.25	0.5	True	second_horizon	27.88	5.0	3.0	1 3 2 1 2 4	1 3 2 1 3 4	26.25	30.0	174.25058174999867	1	174.25058283333055	0.0	
1	1	2	3	4	0	unimanual	3.25	0.5	True	second_horizon	1.62	5.0	3.0	3 1 2 1 4 1	3 1 2 1 3 1	0.0	3.75	148.00083170833386	202	0.3549227499970584	0.0	
1	1	2	3	4	1	unimanual	3.25	0.5	True	first_horizon	5.92	5.0	3.0	3 2 3 2 4 2	3 2 3 2 3 2	3.75	7.5	151.75069045833516	206	0.0177087916745222	0.0	
1	1	2	3	4	2	unimanual	3.25	0.5	True					4 2 4 1 4 1	4 2 4 1 4 1	7.5	11.25	155.50060883333208	209	0.8923949166637613	0.0	
1	1	2	3	4	3	unimanual	3.25	0.5	True	second_horizon	12.33	4.0	3.0	3 4 2 4 1 2	3 4 2 3 1 2	11.25	15.0	159.2507562499959	214	0.0911697083283797	0.0	
1	1	2	3	4	4	unimanual	3.25	0.5	True					3 1 2 4 2 3	3 1 2 4 2 3	15.0	18.75	163.00066420833173	219	0.1710518333347863	0.0	
1	1	2	3	4	5	unimanual	3.25	0.5	True					4 3 2 4 1 3	4 3 2 4 1 3	18.75	22.5	166.75068320833816	224	0.3749909583348199	0.0	
1	1	2	3	4	6	unimanual	3.25	0.5	True					4 3 2 4 3 1	4 3 2 4 3 1	22.5	26.25	170.5006670833318	230	0.1617856250013574	0.0	
1	1	2	3	4	7	unimanual	3.25	0.5	True	second_horizon	27.88	5.0	3.0	1 3 2 1 2 4	1 3 2 1 3 4	26.25	30.0	174.25060695833236	235	0.5872832083405228	0.0	
1	1	2	3	4	0	unimanual	3.25	0.5	True	second_horizon	1.62	5.0	3.0	3 1 2 1 4 1	3 1 2 1 3 1	0.0	3.75	148.0008670416646	120	0.0107272083332645	1.0	0.4901526319432984
1	1	2	3	4	1	unimanual	3.25	0.5	True	first_horizon	5.92	5.0	3.0	3 2 3 2 4 2	3 2 3 2 3 2	3.75	7.5	151.75056458332983	126	0.8080370416646474	0.8333333333333334	0.548669908332522
1	1	2	3	4	2	unimanual	3.25	0.5	True					4 2 4 1 4 1	4 2 4 1 4 1	7.5	11.25	155.50062925000384	133	0.4610711249988526	1.0	0.4685131597228367
1	1	2	3	4	3	unimanual	3.25	0.5	True	second_horizon	12.33	4.0	3.0	3 4 2 4 1 2	3 4 2 3 1 2	11.25	15.0	159.25074404166662	140	0.1562074583416688	0.8333333333333334	0.5497856500005582
1	1	2	3	4	4	unimanual	3.25	0.5	True					3 1 2 4 2 3	3 1 2 4 2 3	15.0	18.75	163.0006625833339	147	0.3942265416699229	1.0	0.4183872847218784
1	1	2	3	4	5	unimanual	3.25	0.5	True					4 3 2 4 1 3	4 3 2 4 1 3	18.75	22.5	166.75065591666498	154	0.4809698749959352	1.0	0.5131893194435785
1	1	2	3	4	6	unimanual	3.25	0.5	True					4 3 2 4 3 1	4 3 2 4 3 1	22.5	26.25	170.50062287500623	162	0.1496732916784822	1.0	0.4977154652782095
1	1	2	3	4	7	unimanual	3.25	0.5	True	second_horizon	27.88	5.0	3.0	1 3 2 1 2 4	1 3 2 1 3 4	26.25	30.0	174.25067037500412	170	0.2283498333345051	0.6666666666666666	0.7207718229183229
2	1	2	3	4	0	unimanual	3.25	0.5	True	second_horizon	1.62	5.0	3.0	3 1 2 1 4 1	3 1 2 1 3 1	0.0	3.75	113.00079958332935	119	0.7138653333386173	1.0	0.5396204513878425
2	1	2	3	4	1	unimanual	3.25	0.5	True	first_horizon	5.92	5.0	3.0	3 2 3 2 4 2	3 2 3 2 3 2	3.75	7.5	116.7506088333248	125	0.3835493333390332	1.0	0.4533538958336673
2	1	2	3	4	2	unimanual	3.25	0.5	True					4 2 4 1 4 1	4 2 4 1 4 1	7.5	11.25	120.5005902083285	132	0.0296024583294638	1.0	0.3750820694440335
2	1	2	3	4	3	unimanual	3.25	0.5	True	second_horizon	12.33	4.0	3.0	3 4 2 4 1 2	3 4 2 3 1 2	11.25	15.0	124.25060691666296	140	0.3956074583402369	1.0	0.3768296805549956
2	1	2	3	4	4	unimanual	3.25	0.5	True					3 1 2 4 2 3	3 1 2 4 2 3	15.0	18.75	128.00054079166148	147	0.8658008749989676	1.0	0.3703817986109546
2	1	2	3	4	5	unimanual	3.25	0.5	True					4 3 2 4 1 3	4 3 2 4 1 3	18.75	22.5	131.75060987499455	156	0.1354559583414811	1.0	0.4146031527779996
2	1	2	3	4	6	unimanual	3.25	0.5	True					4 3 2 4 3 1	4 3 2 4 3 1	22.5	26.25	135.50056537499768	163	0.5411874583369354	0.8333333333333334	0.589365041666315
2	1	2	3	4	7	unimanual	3.25	0.5	True	second_horizon	27.88	5.0	3.0	1 3 2 1 2 4	1 3 2 1 3 4	26.25	30.0	139.2506259166621	171	0.4590826249987003	1.0	0.4434191111116282
1	1	2	3	4	0	unimanual	3.25	0.5	True	second_horizon	1.62	5.0	3.0	3 2 3 1 4 2	3 2 3 1 3 2	0.0	3.75	218.0008160833313	260	0.2038477083333418	0.6666666666666666	0.4339547291662408
1	1	2	3	4	1	unimanual	3.25	0.5	True	second_horizon	5.92	6.0	3.0	2 3 4 1 4 2	2 3 4 1 4 3	3.75	7.5	221.7506679999933	264	0.3933728333358885	1.0	0.4236433472227266
1	1	2	3	4	2	unimanual	3.25	0.5	True	first_horizon	9.12	4.0	1.0	3 1 2 3 4 2	3 1 2 1 4 2	7.5	11.25	225.50059495833557	268	0.6472883750029723	1.0	0.4174442847227813
1	1	2	3	4	3	unimanual	3.25	0.5	True	first_horizon	13.96	6.0	4.0	3 2 1 2 1 3	3 2 1 2 1 4	11.25	15.0	229.2506704583357	272	0.1574281250068452	0.8333333333333334	0.3577634999989338
1	1	2	3	4	4	unimanual	3.25	0.5	True					3 1 4 3 1 2	3 1 4 3 1 2	15.0	18.75	233.00066666665953	276	0.1874335000029532	1.0	0.3658658819440461
1	1	2	3	4	5	unimanual	3.25	0.5	True					2 4 3 2 4 2	2 4 3 2 4 2	18.75	22.5	236.75065962499505	280	0.4412814999959664	0.1666666666666666	0.4492311527780354
1	1	2	3	4	6	unimanual	3.25	0.5	True					1 3 4 1 3 1	1 3 4 1 3 1	22.5	26.25	240.5006814166627	284	0.2070762083385489	1.0	0.3643593055555054
1	1	2	3	4	7	unimanual	3.25	0.5	True					2 1 3 2 4 1	2 1 3 2 4 1	26.25	30.0	244.25067624999792	288	0.0854380000018864	1.0	0.3164512499994695
1	1	2	3	4	0	unimanual	3.25	0.5	True	second_horizon	1.62	5.0	3.0	3 2 3 1 4 2	3 2 3 1 3 2	0.0	3.75	148.00089641666273	175	1.4678378750031698	0.8333333333333334	0.5238891527769738
1	1	2	3	4	1	unimanual	3.25	0.5	True	second_horizon	5.92	6.0	3.0	2 3 4 1 4 2	2 3 4 1 4 3	3.75	7.5	151.7507837916637	179	0.3539581666627782	0.8333333333333334	0.522286159722474
1	1	2	3	4	2	unimanual	3.25	0.5	True	first_horizon	9.12	4.0	1.0	3 1 2 3 4 2	3 1 2 1 4 2	7.5	11.25	155.5007489166601	183	0.368139666665229	1.0	0.4240855138899254
1	1	2	3	4	3	unimanual	3.25	0.5	True	first_horizon	13.96	6.0	4.0	3 2 1 2 1 3	3 2 1 2 1 4	11.25	15.0	159.25063087500166	187	0.5817804583421093	0.8333333333333334	0.3791699236098793
1	1	2	3	4	4	unimanual	3.25	0.5	True					3 1 4 3 1 2	3 1 4 3 1 2	15.0	18.75	163.0006874583269	192	0.1316289583264733	1.0	0.3352142708329969
1	1	2	3	4	5	unimanual	3.25	0.5	True					2 4 3 2 4 2	2 4 3 2 4 2	18.75	22.5	166.75078158332326	196	0.6258094583245111	1.0	0.3517610555560774
1	1	2	3	4	6	unimanual	3.25	0.5	True					1 3 4 1 3 1	1 3 4 1 3 1	22.5	26.25	170.5005850000016	200	0.879642750005587	1.0	0.2720717361104713
1	1	2	3	4	7	unimanual	3.25	0.5	True					2 1 3 2 4 1	2 1 3 2 4 1	26.25	30.0	174.25063166666223	204	0.9257118333262042	0.6666666666666666	0.3008362569441185
1	1	2	3	4	0	unimanual	3.25	0.5	True					4 2 4 2 1 2	4 2 4 2 1 2	0.0	3.75	428.0008246249999	571	0.4906312083330704	0.0	0.3930720972214961
1	1	2	3	4	1	unimanual	3.25	0.5	True					2 4 2 4 3 1	2 4 2 4 3 1	3.75	7.5	431.75065408333467	576	0.368442833336303	1.0	0.2959172986108266
1	1	2	3	4	2	unimanual	3.25	0.5	True	second_horizon	9.12	5.0	2.0	2 1 2 3 1 4	2 1 2 3 2 4	7.5	11.25	435.50057737500174	581	0.6226017083245097	1.0	0.2746856875007021
1	1	2	3	4	3	unimanual	3.25	0.5	True	second_horizon	13.42	6.0	4.0	1 2 1 4 3 1	1 2 1 4 3 4	11.25	15.0	439.2506652916636	587	0.468420208322641	1.0	0.2979245694441488
1	1	2	3	4	4	unimanual	3.25	0.5	True	first_horizon	16.08	3.0	3.0	4 2 1 4 1 3	4 2 3 4 1 3	15.0	18.75	443.0006651250005	593	0.2663196249995962	0.5	0.2969084097227703
1	1	2	3	4	5	unimanual	3.25	0.5	True					3 2 4 1 3 1	3 2 4 1 3 1	18.75	22.5	446.7506397916659	599	0.0084728750007343	1.0	0.3916958055560826
1	1	2	3	4	6	unimanual	3.25	0.5	True	first_horizon	25.21	6.0	2.0	4 2 1 4 1 3	4 2 1 4 1 2	22.5	26.25	450.5006564583382	605	0.2784394999980577	0.8333333333333334	0.3201557708331772
1	1	2	3	4	7	unimanual	3.25	0.5	True					3 2 3 2 3 2	3 2 3 2 3 2	26.25	30.0	454.2506567916644	611	0.3404584583404357	1.0	0.2797989236108454
1	1	2	3	4	0	unimanual	3.25	0.5	True					1 3 2 4 1 4	1 3 2 4 1 4	0.0	3.75	323.000878166662	413	0.6868122499945457	1.0	0.5205874722232693
1	1	2	3	4	1	unimanual	3.25	0.5	True	first_horizon	5.38	4.0	2.0	1 4 1 4 1 4	1 4 1 2 1 4	3.75	7.5	326.7506418749981	421	0.6228596250002738	0.6666666666666666	0.4225556388895105
1	1	2	3	4	2	unimanual	3.25	0.5	True	first_horizon	8.58	3.0	3.0	2 4 1 4 1 4	2 4 3 4 1 4	7.5	11.25	330.50074270833284	430	0.1424604583371547	0.8333333333333334	0.4514120624990028
1	1	2	3	4	3	unimanual	3.25	0.5	True					2 1 3 2 3 4	2 1 3 2 3 4	11.25	15.0	334.2506064583358	439	0.6469819999983883	1.0	0.3629197986107708
1	1	2	3	4	4	unimanual	3.25	0.5	True					3 2 1 4 2 1	3 2 1 4 2 1	15.0	18.75	338.00075662499876	448	0.5513804583388264	1.0	0.4212162986113981
1	1	2	3	4	5	unimanual	3.25	0.5	True	second_horizon	20.38	5.0	4.0	2 1 2 3 1 2	2 1 2 3 4 2	18.75	22.5	341.7506987083325	458	0.1400193750014295	1.0	0.4056065486098911
1	1	2	3	4	6	unimanual	3.25	0.5	True					1 3 2 4 1 4	1 3 2 4 1 4	22.5	26.25	345.5007235416633	467	0.1501384583316394	1.0	0.397364041666151
1	1	2	3	4	7	unimanual	3.25	0.5	True	first_horizon	27.88	4.0	2.0	4 1 3 4 1 2	4 1 3 2 1 2	26.25	30.0	349.25069570833875	476	0.3372706666632439	0.5	0.3835467847226634
1	1	2	3	4	0	unimanual	3.25	0.5	True					4 2 3 2 3 4	4 2 3 2 3 4	0.0	3.75	148.00086295832443	288	0.2000374999988707	1.0	0.4024307083333648
1	1	2	3	4	1	unimanual	3.25	0.5	True	second_horizon	5.92	6.0	4.0	3 1 3 2 1 2	3 1 3 2 1 4	3.75	7.5	151.75083137500042	298	0.4446644999989075	1.0	0.3077614722205908
1	1	2	3	4	2	unimanual	3.25	0.5	True					1 2 3 2 4 2	1 2 3 2 4 2	7.5	11.25	155.50076049999916	308	0.3887589583391673	1.0	0.3846022708336629
1	1	2	3	4	3	unimanual	3.25	0.5	True					3 2 1 4 3 4	3 2 1 4 3 4	11.25	15.0	159.25072129166074	319	0.0378304583355202	1.0	0.3827629722218262
1	1	2	3	4	4	unimanual	3.25	0.5	True	first_horizon	15.54	2.0	1.0	4 3 2 1 4 3	4 1 2 1 4 3	15.0	18.75	163.00069999999687	329	0.0488625833386322	0.8333333333333334	0.4099814583326709
1	1	2	3	4	5	unimanual	3.25	0.5	True					2 3 1 2 4 3	2 3 1 2 4 3	18.75	22.5	166.7506987500019	339	0.1898890416778158	1.0	0.3859787013886186
1	1	2	3	4	6	unimanual	3.25	0.5	True	second_horizon	24.12	5.0	1.0	4 3 1 3 4 2	4 3 1 3 1 2	22.5	26.25	170.50071537499753	349	0.4659537499974249	0.8333333333333334	0.4401761180561152
1	1	2	3	4	7	unimanual	3.25	0.5	True	first_horizon	27.33	3.0	4.0	1 3 2 1 4 2	1 3 4 1 4 2	26.25	30.0	174.2506549999962	359	0.5692090416632709	0.5	0.4724859999999656
2	1	2	3	4	0	unimanual	3.25	0.5	True					1 3 2 4 1 4	1 3 2 4 1 4	0.0	3.75	288.0008100416744	468	0.5360773749998771	1.0	0.3123659305553398
2	1	2	3	4	1	unimanual	3.25	0.5	True	first_horizon	5.38	4.0	2.0	1 4 1 4 1 4	1 4 1 2 1 4	3.75	7.5	291.7506696249984	478	0.413604999994277	0.8333333333333334	0.3427739583336612
2	1	2	3	4	2	unimanual	3.25	0.5	True	first_horizon	8.58	3.0	3.0	2 4 1 4 1 4	2 4 3 4 1 4	7.5	11.25	295.5006521666728	489	0.1386214583326364	0.1666666666666666	0.3504613472226386
2	1	2	3	4	3	unimanual	3.25	0.5	True					2 1 3 2 3 4	2 1 3 2 3 4	11.25	15.0	299.2506505833371	499	0.3457493333262391	1.0	0.279910923611169
2	1	2	3	4	4	unimanual	3.25	0.5	True					3 2 1 4 2 1	3 2 1 4 2 1	15.0	18.75	303.00069975000224	511	0.1874171666713664	1.0	0.3140872499995263
2	1	2	3	4	5	unimanual	3.25	0.5	True	second_horizon	20.38	5.0	4.0	2 1 2 3 1 2	2 1 2 3 4 2	18.75	22.5	306.7506895000042	523	0.2442303749994607	0.6666666666666666	0.2742765972216148
2	1	2	3	4	6	unimanual	3.25	0.5	True					1 3 2 4 1 4	1 3 2 4 1 4	22.5	26.25	310.50066179167334	535	0.1764298750058515	1.0	0.26530476388992
2	1	2	3	4	7	unimanual	3.25	0.5	True	first_horizon	27.88	4.0	2.0	4 1 3 4 1 2	4 1 3 2 1 2	26.25	30.0	314.25068229167664	547	0.2473647083243122	0.8333333333333334	0.2713112430550002
1	1	2	3	4	0	unimanual	3.25	0.5	True					4 2 3 2 3 4	4 2 3 2 3 4	0.0	3.75	148.00083783333685	261	0.3928790833379025	1.0	0.4030753680563066
1	1	2	3	4	1	unimanual	3.25	0.5	True	second_horizon	5.92	6.0	4.0	3 1 3 2 1 2	3 1 3 2 1 4	3.75	7.5	151.75074208333535	272	0.0406327083328506	1.0	0.3557190486098989
1	1	2	3	4	2	unimanual	3.25	0.5	True					1 2 3 2 4 2	1 2 3 2 4 2	7.5	11.25	155.5007399166716	282	0.1817318333341973	1.0	0.3313791041667476
1	1	2	3	4	3	unimanual	3.25	0.5	True					3 2 1 4 3 4	3 2 1 4 3 4	11.25	15.0	159.2506924166737	292	0.2557172083252226	1.0	0.365438888889912
1	1	2	3	4	4	unimanual	3.25	0.5	True	first_horizon	15.54	2.0	1.0	4 3 2 1 4 3	4 1 2 1 4 3	15.0	18.75	163.00069624999742	302	0.102720083326858	0.8333333333333334	0.3775202916670726
1	1	2	3	4	5	unimanual	3.25	0.5	True					2 3 1 2 4 3	2 3 1 2 4 3	18.75	22.5	166.75067954167025	311	0.5052059583322261	1.0	0.3803307361110152
1	1	2	3	4	6	unimanual	3.25	0.5	True	second_horizon	24.12	5.0	1.0	4 3 1 3 4 2	4 3 1 3 1 2	22.5	26.25	170.5007101666706	322	0.0054220000019995	1.0	0.4609854097228283
1	1	2	3	4	7	unimanual	3.25	0.5	True	first_horizon	27.33	3.0	4.0	1 3 2 1 4 2	1 3 4 1 4 2	26.25	30.0	174.2506716249991	331	0.4880499583377968	0.8333333333333334	0.4356742777781619
1	1	2	3	4	0	unimanual	3.25	0.5	True					2 3 4 3 4 3	2 3 4 3 4 3	0.0	3.75	8.000821541667392	20	0.03843875000166	1.0	0.3232560694450512
1	1	2	3	4	1	unimanual	3.25	0.5	True	first_horizon	4.29	2.0	1.0	2 4 2 3 1 3	2 1 2 3 1 3	3.75	7.5	11.75071841666795	32	0.0633639583320473	0.8333333333333334	0.2836842152779961
1	1	2	3	4	2	unimanual	3.25	0.5	True	second_horizon	9.67	6.0	4.0	1 2 4 3 2 3	1 2 4 3 2 4	7.5	11.25	15.500669458335324	44	0.3544252916690311	1.0	0.2629312013887102
1	1	2	3	4	3	unimanual	3.25	0.5	True					3 2 3 1 2 4	3 2 3 1 2 4	11.25	15.0	19.250656458330923	56	0.2594194583289209	0.5	0.4291136041659532
1	1	2	3	4	4	unimanual	3.25	0.5	True	first_horizon	15.54	2.0	2.0	1 4 3 4 2 3	1 2 3 4 2 3	15.0	18.75	23.00068879166793	68	0.0997974166602944	0.8333333333333334	0.3466578194444689
1	1	2	3	4	5	unimanual	3.25	0.5	True	second_horizon	19.83	4.0	3.0	2 3 1 2 4 3	2 3 1 3 4 3	18.75	22.5	26.75067924999894	81	0.1774525833388907	0.5	0.3287154097221598
1	1	2	3	4	6	unimanual	3.25	0.5	True					4 2 1 4 1 3	4 2 1 4 1 3	22.5	26.25	30.50067950000084	92	0.1878686249983729	1.0	0.2568317916666274
1	1	2	3	4	7	unimanual	3.25	0.5	True					2 3 2 1 2 1	2 3 2 1 2 1	26.25	30.0	34.25080245833669	104	0.2550543750039651	1.0	0.3540379027775391
2	1	2	3	4	0	unimanual	3.25	0.5	True	second_horizon	1.08	4.0	3.0	2 1 2 1 4 1	2 1 2 3 4 1	0.0	3.75	288.00080279166286	512	0.3573260833290987	0.5	0.3168568263899942
2	1	2	3	4	1	unimanual	3.25	0.5	True	first_horizon	5.92	5.0	3.0	3 2 3 2 4 1	3 2 3 2 3 1	3.75	7.5	291.7506937083381	523	0.2260868750017834	0.3333333333333333	0.4327882708324371
2	1	2	3	4	2	unimanual	3.25	0.5	True	second_horizon	9.67	6.0	3.0	2 3 1 2 1 2	2 3 1 2 1 3	7.5	11.25	295.50066904166306	533	0.3001112499987357	1.0	0.3745482986123534
2	1	2	3	4	3	unimanual	3.25	0.5	True					1 4 2 1 3 4	1 4 2 1 3 4	11.25	15.0	299.25071266666055	543	0.2111329999970621	1.0	0.2952785902792432
2	1	2	3	4	4	unimanual	3.25	0.5	True					3 1 4 2 1 4	3 1 4 2 1 4	15.0	18.75	303.0006952916665	554	0.337366583327821	1.0	0.3021653611115956
2	1	2	3	4	5	unimanual	3.25	0.5	True					2 1 4 2 3 4	2 1 4 2 3 4	18.75	22.5	306.75065491666464	565	0.0915963333318359	1.0	0.308021715277088
2	1	2	3	4	6	unimanual	3.25	0.5	True	first_horizon	24.67	5.0	3.0	3 1 3 2 4 1	3 1 3 2 3 1	22.5	26.25	310.50076299999637	576	0.0077825000043958	0.8333333333333334	0.5280496666661444
2	1	2	3	4	7	unimanual	3.25	0.5	True					2 1 3 4 2 1	2 1 3 4 2 1	26.25	30.0	314.25072066666326	587	0.0996542916691396	1.0	0.3218060763889904
3	1	2	3	4	0	unimanual	3.25	0.5	True	first_horizon	1.08	3.0	4.0	3 1 3 2 4 3	3 1 4 2 4 3	0.0	3.75	78.00079454166553	110	1.0281191249960102	0.8333333333333334	0.3572595277789029
3	1	2	3	4	1	unimanual	3.25	0.5	True					1 4 1 3 2 1	1 4 1 3 2 1	3.75	7.5	81.75072891666059	121	0.0604120416610385	1.0	0.28236088888904
3	1	2	3	4	2	unimanual	3.25	0.5	True					4 2 3 1 2 3	4 2 3 1 2 3	7.5	11.25	85.5006743749982	133	0.1640781250025611	1.0	0.2894971458335931
3	1	2	3	4	3	unimanual	3.25	0.5	True	first_horizon	12.33	3.0	3.0	3 2 1 4 3 1	3 2 3 4 3 1	11.25	15.0	89.25073808332672	145	0.1074301666667452	0.8333333333333334	0.3950058541668113
3	1	2	3	4	4	unimanual	3.25	0.5	True					3 2 1 2 3 2	3 2 1 2 3 2	15.0	18.75	93.0006682083258	155	0.2232488333320361	1.0	0.3217686944444722
3	1	2	3	4	5	unimanual	3.25	0.5	True	first_horizon	20.38	4.0	2.0	2 3 4 1 3 2	2 3 4 2 3 2	18.75	22.5	96.7506902499954	166	0.3750969166649156	0.8333333333333334	0.365743791667531
3	1	2	3	4	6	unimanual	3.25	0.5	True	first_horizon	24.12	4.0	1.0	4 3 2 3 4 2	4 3 2 1 4 2	22.5	26.25	100.50065645832365	177	0.1475705833363463	0.6666666666666666	0.3366265763894868
3	1	2	3	4	7	unimanual	3.25	0.5	True					3 1 4 2 1 2	3 1 4 2 1 2	26.25	30.0	104.25062287499895	187	0.4026798333361512	1.0	0.4669819027767516
4	1	2	3	4	0	unimanual	3.25	0.5	True					2 3 4 3 4 3	2 3 4 3 4 3	0.0	3.75	113.00079112499952	215	0.1424330833324347	0.5	1.026519722222777
4	1	2	3	4	1	unimanual	3.25	0.5	True	first_horizon	4.29	2.0	1.0	2 4 2 3 1 3	2 1 2 3 1 3	3.75	7.5	116.75070749999576	226	0.0481313749987748	0.8333333333333334	0.4883261875002063
4	1	2	3	4	2	unimanual	3.25	0.5	True	second_horizon	9.67	6.0	4.0	1 2 4 3 2 3	1 2 4 3 2 4	7.5	11.25	120.50064091666718	237	0.212529500000528	1.0	0.314341472221713
4	1	2	3	4	3	unimanual	3.25	0.5	True					3 2 3 1 2 4	3 2 3 1 2 4	11.25	15.0	124.25064266667324	251	0.0423360833301558	1.0	0.3159776041660128
4	1	2	3	4	4	unimanual	3.25	0.5	True	first_horizon	15.54	2.0	2.0	1 4 3 4 2 3	1 2 3 4 2 3	15.0	18.75	128.00066366667306	263	0.3235883750021457	0.8333333333333334	0.3535691319448233
4	1	2	3	4	5	unimanual	3.25	0.5	True	second_horizon	19.83	4.0	3.0	2 3 1 2 4 3	2 3 1 3 4 3	18.75	22.5	131.7506777499948	276	0.0209235833390266	0.5	0.3796987500002918
4	1	2	3	4	6	unimanual	3.25	0.5	True					4 2 1 4 1 3	4 2 1 4 1 3	22.5	26.25	135.50066833333403	288	0.2826465416728752	1.0	0.2634442291661495
4	1	2	3	4	7	unimanual	3.25	0.5	True					2 3 2 1 2 1	2 3 2 1 2 1	26.25	30.0	139.2506438749988	302	0.3156868333317106	0.3333333333333333	0.3039200902785524
1	1	2	3	4	0	unimanual	3.25	0.5	True	second_horizon	1.08	4.0	3.0	2 1 2 1 4 1	2 1 2 3 4 1	0.0	3.75	113.0007999583322	162	0.1367107083351584	0.5	0.3243229375002556
1	1	2	3	4	1	unimanual	3.25	0.5	True	first_horizon	5.92	5.0	3.0	3 2 3 2 4 1	3 2 3 2 3 1	3.75	7.5	116.7506545833312	174	0.2675530833366792	0.0	0.425870909721804
1	1	2	3	4	2	unimanual	3.25	0.5	True	second_horizon	9.67	6.0	3.0	2 3 1 2 1 2	2 3 1 2 1 3	7.5	11.25	120.5006272916653	186	0.099766166662448	0.6666666666666666	0.3466284652774145
1	1	2	3	4	3	unimanual	3.25	0.5	True					1 4 2 1 3 4	1 4 2 1 3 4	11.25	15.0	124.250651250004	197	0.2728727916619391	1.0	0.3439689236098881
1	1	2	3	4	4	unimanual	3.25	0.5	True					3 1 4 2 1 4	3 1 4 2 1 4	15.0	18.75	128.0006953750053	210	0.0723280000020167	0.6666666666666666	0.3662252569447446
1	1	2	3	4	5	unimanual	3.25	0.5	True					2 1 4 2 3 4	2 1 4 2 3 4	18.75	22.5	131.7506857916669	221	0.1273654583274037	1.0	0.3209975833330342
1	1	2	3	4	6	unimanual	3.25	0.5	True	first_horizon	24.67	5.0	3.0	3 1 3 2 4 1	3 1 3 2 3 1	22.5	26.25	135.50067812500492	233	0.111271374997159	0.6666666666666666	0.4396797708335119
1	1	2	3	4	7	unimanual	3.25	0.5	True					2 1 3 4 2 1	2 1 3 4 2 1	26.25	30.0	139.25065566666308	245	0.0934004166701925	1.0	0.3784516874996673
2	1	2	3	4	0	unimanual	3.25	0.5	True	first_horizon	1.08	3.0	4.0	3 1 3 2 4 3	3 1 4 2 4 3	0.0	3.75	253.00082487500185	450	0.2359724583366187	0.6666666666666666	0.3962520902787219
2	1	2	3	4	1	unimanual	3.25	0.5	True					1 4 1 3 2 1	1 4 1 3 2 1	3.75	7.5	256.75068658333475	460	0.25020145833696	1.0	0.2760257500000686
2	1	2	3	4	2	unimanual	3.25	0.5	True					4 2 3 1 2 3	4 2 3 1 2 3	7.5	11.25	260.50066133333894	472	0.3647974999985308	1.0	0.2969067291669489
2	1	2	3	4	3	unimanual	3.25	0.5	True	first_horizon	12.33	3.0	3.0	3 2 1 4 3 1	3 2 3 4 3 1	11.25	15.0	264.2506482916724	485	0.1801849583353032	0.8333333333333334	0.3114909791668954
2	1	2	3	4	4	unimanual	3.25	0.5	True					3 2 1 2 3 2	3 2 1 2 3 2	15.0	18.75	268.00065812499815	496	0.3067762916762149	1.0	0.2641980972233189
2	1	2	3	4	5	unimanual	3.25	0.5	True	first_horizon	20.38	4.0	2.0	2 3 4 1 3 2	2 3 4 2 3 2	18.75	22.5	271.7506591666752	508	0.0332600833353353	0.8333333333333334	0.3488529236104417
2	1	2	3	4	6	unimanual	3.25	0.5	True	first_horizon	24.12	4.0	1.0	4 3 2 3 4 2	4 3 2 1 4 2	22.5	26.25	275.5006669583381	518	0.2452462500004912	0.8333333333333334	0.361244402777326
2	1	2	3	4	7	unimanual	3.25	0.5	True					3 1 4 2 1 2	3 1 4 2 1 2	26.25	30.0	279.2505390000006	526	0.0061367083253571	0.0	
1	1	2	3	4	0	unimanual	3.25	0.5	True	first_horizon	0.54	2.0	1.0	4 3 4 3 2 3	4 1 4 3 2 3	0.0	3.75	113.0010272500076	232	0.1312292499933391	0.8333333333333334	0.3731725763912739
1	1	2	3	4	1	unimanual	3.25	0.5	True	first_horizon	4.29	2.0	1.0	4 2 3 1 4 2	4 1 3 1 4 2	3.75	7.5	116.75071220834798	244	0.0050991666648769	0.8333333333333334	0.2729702430563823
1	1	2	3	4	2	unimanual	3.25	0.5	True					1 4 2 4 3 2	1 4 2 4 3 2	7.5	11.25	120.50072187499607	255	0.0640855833335081	1.0	0.2687423055540421
1	1	2	3	4	3	unimanual	3.25	0.5	True					2 1 2 1 3 2	2 1 2 1 3 2	11.25	15.0	124.25080070833792	266	0.2971432500053197	1.0	0.3036592777789337
1	1	2	3	4	4	unimanual	3.25	0.5	True	second_horizon	16.08	4.0	2.0	1 3 1 4 3 4	1 3 1 2 3 4	15.0	18.75	128.00074854167178	278	0.1434294999926351	0.5	0.3044970763876335
1	1	2	3	4	5	unimanual	3.25	0.5	True					2 4 2 3 4 1	2 4 2 3 4 1	18.75	22.5	131.7507097083435	289	0.2403644166770391	1.0	0.26276790277916
1	1	2	3	4	6	unimanual	3.25	0.5	True					2 1 3 1 4 3	2 1 3 1 4 3	22.5	26.25	135.50071112500154	300	0.2883122083294438	1.0	0.2807783958342043
1	1	2	3	4	7	unimanual	3.25	0.5	True	first_horizon	28.96	6.0	1.0	1 2 1 4 3 2	1 2 1 4 3 1	26.25	30.0	139.2507884999941	311	0.2593619583349209	0.8333333333333334	0.2518199930588404
1	1	2	3	4	0	unimanual	3.25	0.5	True	second_horizon	1.08	4.0	2.0	4 1 4 1 4 2	4 1 4 2 4 2	0.0	3.75	323.0008859583322	652	0.6858045000117272	1.0	0.5081800694436728
1	1	2	3	4	1	unimanual	3.25	0.5	True					1 2 4 2 3 4	1 2 4 2 3 4	3.75	7.5	326.75071679166285	662	0.2446568750019651	1.0	0.2392022500013505
1	1	2	3	4	2	unimanual	3.25	0.5	True					1 4 1 2 4 1	1 4 1 2 4 1	7.5	11.25	330.50072400001227	675	0.0959398333216086	0.3333333333333333	0.3293822847238819
1	1	2	3	4	3	unimanual	3.25	0.5	True	first_horizon	13.42	5.0	1.0	4 1 2 3 4 3	4 1 2 3 1 3	11.25	15.0	334.25070908333873	686	0.3357633333216654	0.8333333333333334	0.2463603541667301
1	1	2	3	4	4	unimanual	3.25	0.5	True	first_horizon	17.17	5.0	4.0	3 2 4 1 2 3	3 2 4 1 4 3	15.0	18.75	338.00072704166814	699	0.361050666673691	0.8333333333333334	0.2927385833318112
1	1	2	3	4	5	unimanual	3.25	0.5	True					4 2 4 1 3 4	4 2 4 1 3 4	18.75	22.5	341.7507308750064	712	0.04206737500499	0.3333333333333333	0.2591970416663874
1	1	2	3	4	6	unimanual	3.25	0.5	True					3 2 1 4 3 4	3 2 1 4 3 4	22.5	26.25	345.5007058750052	724	0.274143250004272	1.0	0.2304595069460144
1	1	2	3	4	7	unimanual	3.25	0.5	True	first_horizon	26.79	2.0	1.0	3 2 3 2 3 4	3 1 3 2 3 4	26.25	30.0	349.2507325833285	736	0.2283376666746335	0.8333333333333334	0.3427480416673158
2	1	2	3	4	0	unimanual	3.25	0.5	True					2 3 1 4 2 3	2 3 1 4 2 3	0.0	3.75	183.00082833333	337	0.0433117083302931	0.1666666666666666	1.0184772291686386
2	1	2	3	4	1	unimanual	3.25	0.5	True	second_horizon	4.29	3.0	1.0	1 4 2 3 1 3	1 4 1 3 1 3	3.75	7.5	186.75070341667745	344	0.0359500416525406	0.3333333333333333	1.0413008472241927
2	1	2	3	4	2	unimanual	3.25	0.5	True	first_horizon	8.58	3.0	4.0	2 1 3 2 4 1	2 1 4 2 4 1	7.5	11.25	190.50070212500577	351	0.0677149166731396	0.1666666666666666	0.3448146041676712
2	1	2	3	4	3	unimanual	3.25	0.5	True	second_horizon	13.42	6.0	3.0	1 3 2 3 1 4	1 3 2 3 1 3	11.25	15.0	194.25068800000008	361	0.5115200416767038	0.5	0.2764793680568497
2	1	2	3	4	4	unimanual	3.25	0.5	True	second_horizon	16.08	4.0	2.0	3 4 3 1 3 2	3 4 3 2 3 2	15.0	18.75	198.00071433333505	369	0.2136566250119358	0.1666666666666666	0.5226999791654331
2	1	2	3	4	5	unimanual	3.25	0.5	True					4 2 4 1 4 3	4 2 4 1 4 3	18.75	22.5	201.75064979167655	377	0.0726964999921619	0.0	
2	1	2	3	4	6	unimanual	3.25	0.5	True					3 4 1 3 4 1	3 4 1 3 4 1	22.5	26.25	205.50066666667408	387	0.0730899583286373	0.3333333333333333	0.615903999999864
2	1	2	3	4	7	unimanual	3.25	0.5	True					2 3 2 4 2 4	2 3 2 4 2 4	26.25	30.0	209.25066970832995	396	0.3520123750058701	0.3333333333333333	0.4041837083350401
1	1	2	3	4	0	unimanual	3.25	0.5	True					3 2 3 4 3 2	3 2 3 4 3 2	0.0	3.75	113.00084466666158	285	0.3243563750002067	0.1666666666666666	3.1658069583209
1	1	2	3	4	1	unimanual	3.25	0.5	True	first_horizon	4.29	2.0	2.0	1 4 3 4 1 2	1 2 3 4 1 2	3.75	7.5	116.7506980416656	296	0.0308354166481876	0.5	0.3319509930564284
1	1	2	3	4	2	unimanual	3.25	0.5	True	first_horizon	9.67	5.0	3.0	4 1 3 1 2 4	4 1 3 1 3 4	7.5	11.25	120.50071983333328	308	0.2095978750003269	0.8333333333333334	0.2474667361093452
1	1	2	3	4	3	unimanual	3.25	0.5	True	second_horizon	12.88	5.0	4.0	3 2 4 3 2 1	3 2 4 3 4 1	11.25	15.0	124.25068762501178	322	0.1136191249970579	0.6666666666666666	0.3187926388879229
1	1	2	3	4	4	unimanual	3.25	0.5	True					1 4 1 2 1 4	1 4 1 2 1 4	15.0	18.75	128.00074350000068	334	0.0334698333463165	1.0	0.236257534721517
1	1	2	3	4	5	unimanual	3.25	0.5	True	second_horizon	19.29	3.0	2.0	4 3 4 1 3 4	4 3 2 1 3 4	18.75	22.5	131.7508105000015	347	0.176830249998602	0.3333333333333333	0.2427858263909001
1	1	2	3	4	6	unimanual	3.25	0.5	True					4 3 4 3 1 4	4 3 4 3 1 4	22.5	26.25	135.50071133334131	360	0.2369075833266833	1.0	0.2434853472198786
1	1	2	3	4	7	unimanual	3.25	0.5	True					1 3 1 3 4 3	1 3 1 3 4 3	26.25	30.0	139.25070899999992	374	0.2458459166664397	1.0	0.2152531736137461
2	1	2	3	4	0	unimanual	3.25	0.5	True	first_horizon	2.17	5.0	4.0	3 2 3 2 1 3	3 2 3 2 4 3	0.0	3.75	288.000840875	658	0.2290210000064689	0.8333333333333334	0.4281588611120241
2	1	2	3	4	1	unimanual	3.25	0.5	True					3 1 4 1 2 4	3 1 4 1 2 4	3.75	7.5	291.75070558332663	667	0.2770742916618474	1.0	0.3362980138869413
2	1	2	3	4	2	unimanual	3.25	0.5	True	first_horizon	9.12	4.0	3.0	4 2 4 1 2 4	4 2 4 3 2 4	7.5	11.25	295.5006730000023	678	0.2094974166684551	0.8333333333333334	0.3474354166658789
2	1	2	3	4	3	unimanual	3.25	0.5	True	second_horizon	12.88	5.0	2.0	4 3 4 3 1 4	4 3 4 3 2 4	11.25	15.0	299.2506841666618	688	0.0734585833415621	1.0	0.4252359513896711
2	1	2	3	4	4	unimanual	3.25	0.5	True					4 3 2 1 4 3	4 3 2 1 4 3	15.0	18.75	303.00073829165194	698	0.3441667083243374	1.0	0.3024746527783766
2	1	2	3	4	5	unimanual	3.25	0.5	True	second_horizon	19.29	3.0	1.0	1 3 2 3 2 3	1 3 1 3 2 3	18.75	22.5	306.7507132500032	707	0.0526428750017657	1.0	0.3233133402803408
2	1	2	3	4	6	unimanual	3.25	0.5	True					3 1 2 1 3 1	3 1 2 1 3 1	22.5	26.25	310.50068670832843	715	0.0712535416678292	1.0	0.2934014027778175
2	1	2	3	4	7	unimanual	3.25	0.5	True					2 3 2 4 1 3	2 3 2 4 1 3	26.25	30.0	314.25061033332895	722	1.064399291659356	1.0	0.3197228680558813
1	1	2	3	4	0	unimanual	3.25	0.5	True					1 3 1 2 4 2	1 3 1 2 4 2	0.0	3.75	358.00089308332826	787	0.0085350833251141	1.0	0.3081667152776693
1	1	2	3	4	1	unimanual	3.25	0.5	True	first_horizon	6.46	6.0	2.0	3 4 3 1 3 4	3 4 3 1 3 2	3.75	7.5	361.75072370831913	797	0.1456109166756505	0.8333333333333334	0.3969777569460954
1	1	2	3	4	2	unimanual	3.25	0.5	True	second_horizon	9.12	5.0	1.0	4 2 1 4 2 4	4 2 1 4 1 4	7.5	11.25	365.5006782499986	807	0.3905812083394266	1.0	0.3072453472244281
1	1	2	3	4	3	unimanual	3.25	0.5	True					2 4 3 2 3 4	2 4 3 2 3 4	11.25	15.0	369.2507454999868	818	0.042880041670287	1.0	0.2955195000007127
1	1	2	3	4	4	unimanual	3.25	0.5	True	first_horizon	17.71	6.0	2.0	1 4 1 4 1 3	1 4 1 4 1 2	15.0	18.75	373.000729374995	829	0.0808302499935962	0.8333333333333334	0.2921658402774483
1	1	2	3	4	5	unimanual	3.25	0.5	True	first_horizon	19.29	2.0	3.0	2 4 1 2 1 3	2 3 1 2 1 3	18.75	22.5	376.7507162083202	840	0.1979812916688388	0.8333333333333334	0.3529400000018843
1	1	2	3	4	6	unimanual	3.25	0.5	True					1 4 1 3 2 1	1 4 1 3 2 1	22.5	26.25	380.5007091249863	850	0.303081291669514	1.0	0.3397017361082059
1	1	2	3	4	7	unimanual	3.25	0.5	True					2 3 2 1 3 4	2 3 2 1 3 4	26.25	30.0	384.2507233333163	861	0.4149448749958537	1.0	0.3643258611118654
2	1	2	3	4	0	unimanual	3.25	0.5	True	second_horizon	1.08	4.0	4.0	1 4 3 2 3 4	1 4 3 4 3 4	0.0	3.75	43.0008255833236	99	0.5560242083302	0.5	0.3576670347223019
2	1	2	3	4	1	unimanual	3.25	0.5	True					4 2 3 1 2 1	4 2 3 1 2 1	3.75	7.5	46.750744833319914	110	0.0180202916671987	1.0	0.3578190486102054
2	1	2	3	4	2	unimanual	3.25	0.5	True					3 1 3 1 2 4	3 1 3 1 2 4	7.5	11.25	50.500648583329166	119	0.3757336666603805	1.0	0.3320335347210251
2	1	2	3	4	3	unimanual	3.25	0.5	True	second_horizon	11.79	3.0	4.0	4 2 3 1 4 1	4 2 4 1 4 1	11.25	15.0	54.25079379166709	131	0.0321570833330042	0.8333333333333334	0.3403363472243654
2	1	2	3	4	4	unimanual	3.25	0.5	True	second_horizon	17.17	6.0	3.0	1 4 1 3 4 2	1 4 1 3 4 3	15.0	18.75	58.00072970832116	142	0.2562100000068312	1.0	0.3301750763882107
2	1	2	3	4	5	unimanual	3.25	0.5	True					2 1 2 4 3 4	2 1 2 4 3 4	18.75	22.5	61.75069695831917	154	0.3231711249973159	1.0	0.2312677291677876
2	1	2	3	4	6	unimanual	3.25	0.5	True					4 2 4 2 3 1	4 2 4 2 3 1	22.5	26.25	65.5007050416607	167	0.3072870833275374	1.0	0.2864471458330324
2	1	2	3	4	7	unimanual	3.25	0.5	True	second_horizon	27.33	4.0	4.0	2 1 2 1 2 4	2 1 2 4 2 4	26.25	30.0	69.25070012499054	179	0.2962184583302587	0.5	0.3690381250004672
3	1	2	3	4	0	unimanual	3.25	0.5	True					3 2 1 4 2 3	3 2 1 4 2 3	0.0	3.75	253.0008192916575	568	0.0039589999942108	0.8333333333333334	0.4646773541656633
3	1	2	3	4	1	unimanual	3.25	0.5	True					2 4 3 1 4 3	2 4 3 1 4 3	3.75	7.5	256.7506613750011	578	0.1780138750036712	0.5	0.3442413888891072
3	1	2	3	4	2	unimanual	3.25	0.5	True					3 2 1 2 1 3	3 2 1 2 1 3	7.5	11.25	260.5007246666646	587	0.2980965833266964	0.3333333333333333	0.3953072986090167
3	1	2	3	4	3	unimanual	3.25	0.5	True					4 2 4 3 1 2	4 2 4 3 1 2	11.25	15.0	264.2507622500125	597	0.3689773333317134	1.0	0.3386456458320026
3	1	2	3	4	4	unimanual	3.25	0.5	True	first_horizon	17.17	5.0	4.0	4 2 1 2 3 1	4 2 1 2 4 1	15.0	18.75	268.0006600416673	609	0.1953441666846629	0.8333333333333334	0.3111384652778118
3	1	2	3	4	5	unimanual	3.25	0.5	True	first_horizon	19.29	2.0	2.0	4 3 4 2 3 1	4 2 4 2 3 1	18.75	22.5	271.75068404166086	621	0.3191700416646199	0.8333333333333334	0.3326218541672763
3	1	2	3	4	6	unimanual	3.25	0.5	True	first_horizon	25.21	6.0	1.0	1 2 4 3 2 4	1 2 4 3 2 1	22.5	26.25	275.5006484583282	632	0.2474142083228798	0.8333333333333334	0.2606382569453369
3	1	2	3	4	7	unimanual	3.25	0.5	True	first_horizon	28.96	6.0	1.0	1 3 2 1 3 4	1 3 2 1 3 1	26.25	30.0	279.25071795833355	644	0.226367333336384	0.8333333333333334	0.2568632986100662
4	1	2	3	4	0	unimanual	3.25	0.5	True					1 2 3 1 2 3	1 2 3 1 2 3	0.0	3.75	323.00082324999676	592	0.3351677083555842	1.0	0.2969725763881191
4	1	2	3	4	1	unimanual	3.25	0.5	True					1 4 3 2 3 1	1 4 3 2 3 1	3.75	7.5	326.7507292083319	604	0.3775266666489187	1.0	0.2690145208325702
4	1	2	3	4	2	unimanual	3.25	0.5	True	first_horizon	10.21	6.0	2.0	1 3 4 2 1 3	1 3 4 2 1 2	7.5	11.25	330.50070137500006	616	0.3160337500012247	0.8333333333333334	0.2993426736138644
4	1	2	3	4	3	unimanual	3.25	0.5	True					4 3 4 3 1 2	4 3 4 3 1 2	11.25	15.0	334.2506782083219	628	0.0042660416802391	0.6666666666666666	0.4949667291681787
4	1	2	3	4	4	unimanual	3.25	0.5	True					2 3 1 2 3 1	2 3 1 2 3 1	15.0	18.75	338.00066245833295	635	0.0980676250037504	1.0	0.4254645138911049
4	1	2	3	4	5	unimanual	3.25	0.5	True	first_horizon	20.38	4.0	4.0	3 4 3 1 2 1	3 4 3 4 2 1	18.75	22.5	341.7506559583271	644	0.5052974999998696	0.8333333333333334	0.4691600694447213
4	1	2	3	4	6	unimanual	3.25	0.5	True	second_horizon	24.67	6.0	2.0	1 4 2 4 1 3	1 4 2 4 1 2	22.5	26.25	345.50069579164847	653	0.3392764583404641	0.8333333333333334	0.3141468888885962
4	1	2	3	4	7	unimanual	3.25	0.5	True	first_horizon	27.33	3.0	2.0	1 3 1 4 3 4	1 3 2 4 3 4	26.25	30.0	349.25067112500255	663	0.3621628333348781	0.8333333333333334	0.3374702152747583
5	1	2	3	4	0	unimanual	3.25	0.5	True	second_horizon	0.54	3.0	1.0	4 2 4 2 4 2	4 2 1 2 4 2	0.0	3.75	8.000902041661902	12	0.0928967499930877	1.0	0.443526763888561
5	1	2	3	4	1	unimanual	3.25	0.5	True					1 4 3 4 1 2	1 4 3 4 1 2	3.75	7.5	11.750781500013543	20	0.4961080833454616	1.0	0.3551422291663281
5	1	2	3	4	2	unimanual	3.25	0.5	True	second_horizon	9.12	5.0	1.0	3 4 2 4 2 4	3 4 2 4 1 4	7.5	11.25	15.500686833329382	31	0.3079426666517975	1.0	0.3092995763897003
5	1	2	3	4	3	unimanual	3.25	0.5	True					4 2 4 2 3 4	4 2 4 2 3 4	11.25	15.0	19.25066391666769	41	0.1869261666579404	1.0	0.3231532013887772
5	1	2	3	4	4	unimanual	3.25	0.5	True	first_horizon	17.71	6.0	1.0	3 2 4 3 2 4	3 2 4 3 2 1	15.0	18.75	23.00071450001269	51	0.3230404166679363	0.8333333333333334	0.3864861458350788
5	1	2	3	4	5	unimanual	3.25	0.5	True	first_horizon	20.38	4.0	4.0	4 2 1 3 2 1	4 2 1 4 2 1	18.75	22.5	26.75068800000008	62	0.0141837916744407	0.6666666666666666	0.3688113194463464
5	1	2	3	4	6	unimanual	3.25	0.5	True					3 4 3 4 3 4	3 4 3 4 3 4	22.5	26.25	30.500681958335917	71	0.369325708335964	1.0	0.3070527638895631
5	1	2	3	4	7	unimanual	3.25	0.5	True					2 4 1 4 1 4	2 4 1 4 1 4	26.25	30.0	34.25073216666351	83	0.2513948749983683	1.0	0.2939139861118747
6	1	2	3	4	0	unimanual	3.25	0.5	True					1 2 1 3 2 3	1 2 1 3 2 3	0.0	3.75	288.0008139166457	480	0.25722162499732804	1.0	0.31935238194516086
6	1	2	3	4	1	unimanual	3.25	0.5	True					3 4 2 4 3 2	3 4 2 4 3 2	3.75	7.5	291.7506956666475	490	0.22406516666524112	1.0	0.27963718750106636
6	1	2	3	4	2	unimanual	3.25	0.5	True	first_horizon	10.21	6.0	2.0	3 1 3 4 3 1	3 1 3 4 3 2	7.5	11.25	295.5007895000017	500	0.47915691667003557	0.8333333333333334	0.3176768194437803
6	1	2	3	4	3	unimanual	3.25	0.5	True					3 4 2 4 2 1	3 4 2 4 2 1	11.25	15.0	299.25064595832373	511	0.07499645833740942	1.0	0.2888307708344655
6	1	2	3	4	4	unimanual	3.25	0.5	True	second_horizon	17.17	6.0	4.0	4 3 4 3 1 3	4 3 4 3 1 4	15.0	18.75	303.00067866664904	520	0.3171331666671904	0.8333333333333334	0.3073305486129054
6	1	2	3	4	5	unimanual	3.25	0.5	True	first_horizon	19.83	3.0	2.0	1 4 3 4 1 2	1 4 2 4 1 2	18.75	22.5	306.7506942916516	530	0.11043208332557697	0.8333333333333334	0.28236264583150233
6	1	2	3	4	6	unimanual	3.25	0.5	True	second_horizon	24.67	6.0	1.0	3 2 4 3 4 2	3 2 4 3 4 1	22.5	26.25	310.5007284166495	538	0.6123209166689776	1.0	0.31036236805812223
6	1	2	3	4	7	unimanual	3.25	0.5	True					4 2 4 1 2 1	4 2 4 1 2 1	26.25	30.0	314.25065754164825	548	0.13048683332453948	1.0	0.27394961110985605
