run_num	key_true	key_false	trial_num	hand	trial_dur	iti_dur	display_trial_feedback	trial_type	num_stimuli	feedback_type	start_time	end_time	real_start_time	start_ttl	start_ttl_time	response	rt	correct
1	4	3	0	left	2	0.5	True	1	4	acc	0.0	2.5	78.00024895835668	0	78.00024987501092	4	1.643307958263904	True
1	4	3	1	left	2	0.5	True	1	4	acc	2.5	5.0	80.50001750001684	0	80.50001858337782	4	0.970263541676104	True
1	4	3	2	left	2	0.5	True	0	8	acc	5.0	7.5	83.00001416681334	0	83.00001520826481	3	1.4907112086657437	True
1	4	3	3	left	2	0.5	True	1	4	acc	7.5	10.0	85.50001812493429	0	85.50001908326522	4	0.7156577915884554	True
1	4	3	4	left	2	0.5	True	0	8	acc	10.0	12.5	88.00002458319068	0	88.00002579181455	3	1.5098649999126792	True
1	4	3	5	left	2	0.5	True	0	4	acc	12.5	15.0	90.50002620834856	0	90.5000273331534	3	1.0757009168155491	True
1	4	3	6	left	2	0.5	True	0	8	acc	15.0	17.5	93.00002337503248	0	93.00002437504008	3	1.2744302081409842	True
1	4	3	7	left	2	0.5	True	1	8	acc	17.5	20.0	95.50002016685904	0	95.50002112495712	4	1.050364708295092	True
1	4	3	8	left	2	0.5	True	0	4	acc	20.0	22.5	98.00002379179932	0	98.00002479180694	3	1.0726114169228822	True
1	4	3	9	left	2	0.5	True	0	8	acc	22.5	25.0	100.50002087489702	0	100.500021958258	3	1.7119415001943707	True
1	4	3	10	left	2	0.5	True	0	8	acc	25.0	27.5	103.00001829187386	0	103.00001933332533	3	1.4703371247742325	True
1	4	3	11	left	2	0.5	True	0	4	acc	27.5	30.0	105.50002191681416	0	105.50002291682176	3	1.8202715418301525	True
1	4	3	0	left	2	0.5	True	0	4	acc	0.0	2.5	183.0002262084745	0	183.0002271248959	3	1.516336124856025	True
1	4	3	1	left	2	0.5	True	0	8	acc	2.5	5.0	185.50003895838745	0	185.5000482082833	3	1.3273833750281483	True
1	4	3	2	left	2	0.5	True	0	8	acc	5.0	7.5	188.0000437498093	0	188.00005266675728	3	1.1972454169299451	True
1	4	3	3	left	2	0.5	True	0	8	acc	7.5	10.0	190.50003612483852	0	190.50004537496716	3	1.4769919582176954	True
1	4	3	4	left	2	0.5	True	1	4	acc	10.0	12.5	193.00004274980165	0	193.0000436247792	4	1.479090333217755	True
1	4	3	5	left	2	0.5	True	1	8	acc	12.5	15.0	195.50004770839587	0	195.500056916615	4	1.6871791668236256	True
1	4	3	6	left	2	0.5	True	1	4	acc	15.0	17.5	198.00004024989903	0	198.00004116655327	4	1.2478476667311045	True
1	4	3	7	left	2	0.5	True	0	4	acc	17.5	20.0	200.50004033348523	0	200.5000412084628	3	1.1449701664969325	True
1	4	3	8	left	2	0.5	True	0	4	acc	20.0	22.5	203.00003795837983	0	203.00004720827565	3	1.2227664168458432	True
1	4	3	9	left	2	0.5	True	1	4	acc	22.5	25.0	205.5000344584696	0	205.500043208478	4	1.4287296666298062	True
1	4	3	10	left	2	0.5	True	1	8	acc	25.0	27.5	208.00003920844756	0	208.0000484166667	4	1.0814735416788608	True
1	4	3	11	left	2	0.5	True	0	4	acc	27.5	30.0	210.500042416621	0	210.50006008334455	3	1.1978577498812228	True
13	1	2	0	right	2	0.5	True	0	4	acc	0.0	2.5	393.0001888750121	0	393.0001897918992	2	0.8228039999958128	True
13	1	2	1	right	2	0.5	True	0	8	acc	2.5	5.0	395.50002133334056	0	395.5000305417925	2	1.5122074165847152	True
13	1	2	2	right	2	0.5	True	1	8	acc	5.0	7.5	398.0000165833626	0	398.0000176667236	2	1.226419041864574	False
13	1	2	3	right	2	0.5	True	0	4	acc	7.5	10.0	400.5000175000168	0	400.5000269168522	2	1.460775249870494	True
13	1	2	4	right	2	0.5	True	0	4	acc	10.0	12.5	403.0000202499796	0	403.0000211251899	2	1.3690533335320652	True
13	1	2	5	right	2	0.5	True	0	8	acc	12.5	15.0	405.5000090417452	0	405.50001000007614	2	1.6191169167868793	True
13	1	2	6	right	2	0.5	True	1	4	acc	15.0	17.5	408.0000082917977	0	408.00000916677527	1	1.143951416714117	True
13	1	2	7	right	2	0.5	True	1	4	acc	17.5	20.0	410.5000185833778	0	410.50001950003207	1	0.978097958257422	True
13	1	2	8	right	2	0.5	True	0	8	acc	20.0	22.5	413.0000098333694	0	413.0000107500237	2	1.2946811250876635	True
13	1	2	9	right	2	0.5	True	1	4	acc	22.5	25.0	415.50002504186705	0	415.5000264584087	0		False
13	1	2	10	right	2	0.5	True	1	4	acc	25.0	27.5	418.00002233334817	0	418.0000282083638	1	1.7972263335250318	True
13	1	2	11	right	2	0.5	True	0	8	acc	27.5	30.0	420.5000243750401	0	420.500025458401	2	1.2722954167984426	True
14	4	3	0	left	2	0.5	True	1	4	acc	0.0	2.5	148.00023729191162	0	148.00023825000972	2	1.632185791619122	False
14	4	3	1	left	2	0.5	True	0	4	acc	2.5	5.0	150.5000520418398	0	150.50005295826122	0		False
14	4	3	2	left	2	0.5	True	1	8	acc	5.0	7.5	153.00004875008017	0	153.0000496667344	3	1.581922916462645	False
14	4	3	3	left	2	0.5	True	1	4	acc	7.5	10.0	155.50004887511022	0	155.50004983320832	3	1.335916416719556	False
14	4	3	4	left	2	0.5	True	0	4	acc	10.0	12.5	158.00005575013347	0	158.00005683326162	3	0.948795166797936	True
14	4	3	5	left	2	0.5	True	1	8	acc	12.5	15.0	160.5000505000353	0	160.50005145836622	4	1.2230857501272112	True
14	4	3	6	left	2	0.5	True	0	8	acc	15.0	17.5	163.00005250005051	0	163.00006179185584	3	1.8753520832397044	True
14	4	3	7	left	2	0.5	True	1	4	acc	17.5	20.0	165.50005350005813	0	165.5000628333073	4	1.4859497917350382	True
14	4	3	8	left	2	0.5	True	0	8	acc	20.0	22.5	168.0000527082011	0	168.00005366676487	3	1.7386832914780823	True
14	4	3	9	left	2	0.5	True	0	8	acc	22.5	25.0	170.50005445838906	0	170.50006300001405	3	1.2049412915948778	True
14	4	3	10	left	2	0.5	True	0	4	acc	25.0	27.5	173.00005541672	0	173.00006433320232	3	1.3830676665529609	True
14	4	3	11	left	2	0.5	True	0	4	acc	27.5	30.0	175.5000628333073	0	175.50006374996156	3	1.156341124791652	True
4	4	3	0	left	2	0.5	True	0	4	acc	0.0	2.5	43.00022975006141	0	43.00023070839234	4	1.621391125023365	False
4	4	3	1	left	2	0.5	True	1	4	acc	2.5	5.0	45.50002833339386	0	45.50002933340147	3	1.164133083075285	False
4	4	3	2	left	2	0.5	True	0	4	acc	5.0	7.5	48.000027999980375	0	48.00002891663462	0		False
4	4	3	3	left	2	0.5	True	0	8	acc	7.5	10.0	50.5000229999423	0	50.50002395850606	0		False
4	4	3	4	left	2	0.5	True	1	8	acc	10.0	12.5	53.00001720851287	0	53.000018124934286	4	1.1812549999449402	True
4	4	3	5	left	2	0.5	True	1	8	acc	12.5	15.0	55.50001724995673	0	55.50001820852049	3	1.7861486251931638	False
4	4	3	6	left	2	0.5	True	0	8	acc	15.0	17.5	58.0000184585806	0	58.00001937500201	3	1.5561569584533572	True
4	4	3	7	left	2	0.5	True	0	4	acc	17.5	20.0	60.500015791738406	0	60.500016750069335	3	1.3530087501276284	True
4	4	3	8	left	2	0.5	True	1	4	acc	20.0	22.5	63.000025749905035	0	63.000026708468795	4	0.7792140000965446	True
4	4	3	9	left	2	0.5	True	0	4	acc	22.5	25.0	65.5000176250469	0	65.50003525009379	3	1.8203610833734272	True
4	4	3	10	left	2	0.5	True	0	8	acc	25.0	27.5	68.0000229999423	0	68.00002395850606	3	1.538073583273217	True
4	4	3	11	left	2	0.5	True	0	4	acc	27.5	30.0	70.5000181668438	0	70.50001908349805	3	1.3567386665381491	True
1	4	3	0	left	2	0.5	True	0	4	acc	0.0	2.5	428.0002122916667	1203	0.0819153749980614	0		False
1	4	3	1	left	2	0.5	True	1	4	acc	2.5	5.0	430.5000403333361	1211	0.185640958334261	0		False
1	4	3	2	left	2	0.5	True	1	8	acc	5.0	7.5	433.00004387500303	1219	0.2765778749962919	0		False
1	4	3	3	left	2	0.5	True	0	8	acc	7.5	10.0	435.5000426666629	1228	0.086759958328912	0		False
1	4	3	4	left	2	0.5	True	0	4	acc	10.0	12.5	438.0000299999992	1237	0.1629370000009657	0		False
1	4	3	5	left	2	0.5	True	0	8	acc	12.5	15.0	440.5000330833318	1247	0.2069742916646646	0		False
1	4	3	6	left	2	0.5	True	1	8	acc	15.0	17.5	443.00003595833186	1257	0.1260747083288151	0		False
1	4	3	7	left	2	0.5	True	0	8	acc	17.5	20.0	445.5000422083358	1265	0.2057510416634613	2	1.2745492916656076	False
1	4	3	8	left	2	0.5	True	1	8	acc	20.0	22.5	448.00003162500434	1267	1.7209460000012768	0		False
1	4	3	9	left	2	0.5	True	0	4	acc	22.5	25.0	450.50004366666326	1272	0.2383341666645719	0		False
1	4	3	10	left	2	0.5	True	1	4	acc	25.0	27.5	453.0000365416672	1279	0.2070436249996419	0		False
1	4	3	11	left	2	0.5	True	1	8	acc	27.5	30.0	455.5000831666657	1279	2.7070903333296883	0		False
1	4	3	0	left	2	0.5	True	0	4	acc	0.0	2.5	428.0002453333291	94	149.45753820833488	0		False
1	4	3	1	left	2	0.5	True	1	4	acc	2.5	5.0	430.5000882916647	94	151.95738116666325	0		False
1	4	3	2	left	2	0.5	True	1	8	acc	5.0	7.5	433.0001099166621	94	154.45740283332998	0		False
1	4	3	3	left	2	0.5	True	0	8	acc	7.5	10.0	435.5000954583302	94	156.95738837499812	0		False
1	4	3	4	left	2	0.5	True	0	4	acc	10.0	12.5	438.00009629166743	94	159.4573891666587	0		False
1	4	3	5	left	2	0.5	True	0	8	acc	12.5	15.0	440.5001080833317	94	161.95740095833025	0		False
1	4	3	6	left	2	0.5	True	1	8	acc	15.0	17.5	443.0000938333323	94	164.4573867083309	0		False
1	4	3	7	left	2	0.5	True	0	8	acc	17.5	20.0	445.50008291666745	94	166.9573758333354	0		False
1	4	3	8	left	2	0.5	True	1	8	acc	20.0	22.5	448.00008679166785	94	169.4573797083358	0		False
1	4	3	9	left	2	0.5	True	0	4	acc	22.5	25.0	450.5000833333325	94	171.95737616666156	0		False
1	4	3	10	left	2	0.5	True	1	4	acc	25.0	27.5	453.0001019166666	94	174.45739479165786	0		False
1	4	3	11	left	2	0.5	True	1	8	acc	27.5	30.0	455.50010908333206	94	176.957402	0		False
1	4	3	0	left	2	0.5	True	0	4	acc	0.0	2.5	428.00021141666366	1	428.000212416664	0		False
1	4	3	1	left	2	0.5	True	1	4	acc	2.5	5.0	430.50001925000106	1	430.5000295833306	0		False
1	4	3	2	left	2	0.5	True	1	8	acc	5.0	7.5	433.000027458329	1	433.0000290416647	0		False
1	4	3	3	left	2	0.5	True	0	8	acc	7.5	10.0	435.5000224583273	1	435.50002337500337	0		False
1	4	3	4	left	2	0.5	True	0	4	acc	10.0	12.5	438.0000196666661	1	438.0000208749989	0		False
1	4	3	5	left	2	0.5	True	0	8	acc	12.5	15.0	440.500027333328	1	440.50002849999873	0		False
1	4	3	6	left	2	0.5	True	1	8	acc	15.0	17.5	443.00001350000093	1	443.0000147083265	0		False
1	4	3	7	left	2	0.5	True	0	8	acc	17.5	20.0	445.50001370832615	1	445.50001529166184	0		False
1	4	3	8	left	2	0.5	True	1	8	acc	20.0	22.5	448.0000260833258	1	448.0000277916624	0		False
1	4	3	9	left	2	0.5	True	0	4	acc	22.5	25.0	450.50001508332934	1	450.50002441666584	0		False
1	4	3	10	left	2	0.5	True	1	4	acc	25.0	27.5	453.00002079166734	1	453.00002174999827	0		False
1	4	3	11	left	2	0.5	True	1	8	acc	27.5	30.0	455.5000224583273	1	455.5000235000043	0		False
1	4	3	0	left	2	0.5	True	0	4	acc	0.0	2.5	428.00018229166017	476	28.66629275000014	0		False
1	4	3	1	left	2	0.5	True	1	4	acc	2.5	5.0	430.5000320416657	476	31.166143041664327	0		False
1	4	3	2	left	2	0.5	True	1	8	acc	5.0	7.5	433.00003424999886	476	33.66615308333712	0		False
1	4	3	3	left	2	0.5	True	0	8	acc	7.5	10.0	435.5000312083357	476	36.16614170833782	0		False
1	4	3	4	left	2	0.5	True	0	4	acc	10.0	12.5	438.0000292499972	476	38.666139749999274	0		False
1	4	3	5	left	2	0.5	True	0	8	acc	12.5	15.0	440.5000351666604	476	41.16614566666249	0		False
1	4	3	6	left	2	0.5	True	1	8	acc	15.0	17.5	443.0000281666653	476	43.6661387083368	0		False
1	4	3	7	left	2	0.5	True	0	8	acc	17.5	20.0	445.500031166659	476	46.1661500416667	0		False
1	4	3	8	left	2	0.5	True	1	8	acc	20.0	22.5	448.0000367916655	476	48.66615929166437	0		False
1	4	3	9	left	2	0.5	True	0	4	acc	22.5	25.0	450.5000304166606	476	51.166140875000565	0		False
1	4	3	10	left	2	0.5	True	1	4	acc	25.0	27.5	453.00003195833415	476	53.66614241666685	0		False
1	4	3	11	left	2	0.5	True	1	8	acc	27.5	30.0	455.500034291661	476	56.1661447916631	0		False
1	4	3	0	left	2	0.5	True	0	4	acc	0.0	2.5	428.00019983333186	437	0.5780053333292017	4	1.1247227916755946	False
1	4	3	1	left	2	0.5	True	1	4	acc	2.5	5.0	430.5000265833296	440	0.4379188749953755	0		False
1	4	3	2	left	2	0.5	True	1	8	acc	5.0	7.5	433.0000232500024	443	0.2250679166609188	4	1.3806966666670633	True
1	4	3	3	left	2	0.5	True	0	8	acc	7.5	10.0	435.50001650000195	446	0.3341582083376124	3	1.2383063750021392	True
1	4	3	4	left	2	0.5	True	0	4	acc	10.0	12.5	438.00002216667053	449	0.5138435833287076	3	1.2346852499977103	True
1	4	3	5	left	2	0.5	True	0	8	acc	12.5	15.0	440.5000205833349	452	0.501154833327746	3	1.812636875001772	True
1	4	3	6	left	2	0.5	True	1	8	acc	15.0	17.5	443.00002679166937	455	0.6577935833265656	4	1.6336330833291868	True
1	4	3	7	left	2	0.5	True	0	8	acc	17.5	20.0	445.50002062500425	459	0.0782703333316021	0		False
1	4	3	8	left	2	0.5	True	1	8	acc	20.0	22.5	448.0000202916708	462	0.2893710416610702	4	1.304246208324912	True
1	4	3	9	left	2	0.5	True	0	4	acc	22.5	25.0	450.5000189166676	465	0.3980165416651289	3	1.1148004583374131	True
1	4	3	10	left	2	0.5	True	1	4	acc	25.0	27.5	453.0000195416651	468	0.6823528333334252	4	1.4927258750030887	True
1	4	3	11	left	2	0.5	True	1	8	acc	27.5	30.0	455.5000215000037	472	0.2781948749980074	4	1.2581203333320443	True
2	4	3	0	left	2	0.5	True	0	4	acc	0.0	2.5	288.00022116666514	274	24.32926462499745	0		False
2	4	3	1	left	2	0.5	True	1	4	acc	2.5	5.0	290.50002620832674	274	26.829070208324993	0		False
2	4	3	2	left	2	0.5	True	1	8	acc	5.0	7.5	293.00003283332626	274	29.329076208327024	4	1.068871791663696	True
2	4	3	3	left	2	0.5	True	0	8	acc	7.5	10.0	295.5000371249989	274	31.829080541661824	4	1.961559583331109	False
2	4	3	4	left	2	0.5	True	0	4	acc	10.0	12.5	298.00003166666284	274	34.3290750416636	0		False
2	4	3	5	left	2	0.5	True	0	8	acc	12.5	15.0	300.5000227499986	274	36.829066166661505	0		False
2	4	3	6	left	2	0.5	True	1	8	acc	15.0	17.5	303.00003416666004	274	39.32907758333022	0		False
2	4	3	7	left	2	0.5	True	0	8	acc	17.5	20.0	305.5000332083291	274	41.82907658332988	0		False
2	4	3	8	left	2	0.5	True	1	8	acc	20.0	22.5	308.00002445832797	274	44.329067874998145	0		False
2	4	3	9	left	2	0.5	True	0	4	acc	22.5	25.0	310.5000277083236	274	46.82907108332438	0		False
2	4	3	10	left	2	0.5	True	1	4	acc	25.0	27.5	313.0000277500003	274	49.3290711666632	0		False
2	4	3	11	left	2	0.5	True	1	8	acc	27.5	30.0	315.5000327083253	274	51.82907612500276	0		False
1	1	2	0	right	2	0.5	True	0	8	acc	0.0	2.5	358.0002509583355	398	0.4749051666731247	2	1.0214298749997397	True
1	1	2	1	right	2	0.5	True	0	4	acc	2.5	5.0	360.50007562499377	401	0.3429759583304985	1	1.447616041667061	False
1	1	2	2	right	2	0.5	True	1	4	acc	5.0	7.5	363.000063624997	403	0.4748478749970672	1	0.98799641666119	True
1	1	2	3	right	2	0.5	True	0	4	acc	7.5	10.0	365.50005854166375	406	0.1511679999966872	0		False
1	1	2	4	right	2	0.5	True	0	8	acc	10.0	12.5	368.0000654999967	408	0.6669084166642278	0		False
1	1	2	5	right	2	0.5	True	0	4	acc	12.5	15.0	370.50006970833056	409	0.7668882083307835	2	0.9736849999972036	True
1	1	2	6	right	2	0.5	True	1	4	acc	15.0	17.5	373.0000611249998	409	3.2668875833260245	1	1.5382144583345507	True
1	1	2	7	right	2	0.5	True	0	4	acc	17.5	20.0	375.500076458331	412	0.3189741666719783	0		False
1	1	2	8	right	2	0.5	True	0	4	acc	20.0	22.5	378.0000638749989	413	1.2667725416613391	2	1.3988066250021802	True
1	1	2	9	right	2	0.5	True	1	8	acc	22.5	25.0	380.5000630416616	414	2.4388534166646423	0		False
1	1	2	10	right	2	0.5	True	1	4	acc	25.0	27.5	383.000069208334	415	1.6347823333344422	2	0.9738846666659812	False
1	1	2	11	right	2	0.5	True	0	8	acc	27.5	30.0	385.50006033333193	416	0.1990570416674018	2	0.7623882083353237	True
1	1	2	0	right	2	0.5	True	0	8	acc	0.0	2.5	428.000202999996	438	0.7074186666650348	2	0.6139077499974519	True
1	1	2	1	right	2	0.5	True	0	4	acc	2.5	5.0	430.50003820832353	441	0.6073579583317041	2	0.6843444166661357	True
1	1	2	2	right	2	0.5	True	1	4	acc	5.0	7.5	433.00003604165977	444	0.7154114166696672	2	0.6972393750038464	False
1	1	2	3	right	2	0.5	True	0	4	acc	7.5	10.0	435.5000309166644	447	0.3676261666696518	2	0.8352535416634055	True
1	1	2	4	right	2	0.5	True	0	8	acc	10.0	12.5	438.00002762499935	450	0.4351696666708449	1	0.7123489583318587	False
1	1	2	5	right	2	0.5	True	0	4	acc	12.5	15.0	440.5000205833276	453	0.5834568333302741	2	0.7944168749963865	True
1	1	2	6	right	2	0.5	True	1	4	acc	15.0	17.5	443.00003329166066	456	0.5793856249947567	1	1.084259750001365	True
1	1	2	7	right	2	0.5	True	0	4	acc	17.5	20.0	445.50003237499914	459	0.1194453749994863	2	1.7214974583330331	True
1	1	2	8	right	2	0.5	True	0	4	acc	20.0	22.5	448.0000347916648	461	0.4837343749968568	2	1.411509916666546	True
1	1	2	9	right	2	0.5	True	1	8	acc	22.5	25.0	450.5000218333298	464	0.6957588333243621	1	1.4086027500015916	True
1	1	2	10	right	2	0.5	True	1	4	acc	25.0	27.5	453.0000313749988	467	0.7794142499988084	1	1.4339719166600844	True
1	1	2	11	right	2	0.5	True	0	8	acc	27.5	30.0	455.50003466666385	470	0.7517414583271602	0		False
1	1	2	0	right	2	0.5	True	1	8	acc	0.0	2.5	8.000246916664764	9	0.6093962916711462	2	1.5012290416634642	False
1	1	2	1	right	2	0.5	True	0	4	acc	2.5	5.0	10.50005654166307	12	0.5257371250045253	2	1.2474680000013905	True
1	1	2	2	right	2	0.5	True	1	4	acc	5.0	7.5	13.000053458337788	16	0.2495179583347635	1	1.2521284583344825	True
1	1	2	3	right	2	0.5	True	0	4	acc	7.5	10.0	15.500044791668188	20	0.0616333333382499	2	1.4462451250001322	True
1	1	2	4	right	2	0.5	True	1	4	acc	10.0	12.5	18.00004545833508	24	0.0256349166666041	1	1.5790704166647629	True
1	1	2	5	right	2	0.5	True	0	8	acc	12.5	15.0	20.50005020833487	27	0.517770708334865	2	1.765319375001127	True
1	1	2	6	right	2	0.5	True	1	8	acc	15.0	17.5	23.00005816666817	32	0.1616232499945908	1	1.4340982499998065	True
1	1	2	7	right	2	0.5	True	1	4	acc	17.5	20.0	25.500044333341062	36	0.38963383333612	3	0.5721650833365857	False
1	1	2	8	right	2	0.5	True	1	8	acc	20.0	22.5	28.00004700000136	40	0.1536540416636853	4	0.3291746250033611	False
1	1	2	9	right	2	0.5	True	1	4	acc	22.5	25.0	30.500052000003052	43	0.3702722499947413	0		False
1	1	2	10	right	2	0.5	True	0	8	acc	25.0	27.5	33.000046958339226	47	0.0259143750008661	1	1.2321680833265418	False
1	1	2	11	right	2	0.5	True	1	4	acc	27.5	30.0	35.50005120833521	50	0.1974017916654702	1	1.2582223749996049	True
1	4	3	0	left	2	0.5	True	1	4	acc	0.0	2.5	183.0002374583346	218	0.440555041663174	3	1.5420847499990489	False
1	4	3	1	left	2	0.5	True	1	8	acc	2.5	5.0	185.5000764583383	221	0.1386942916651605	3	1.4541871666660882	False
1	4	3	2	left	2	0.5	True	0	8	acc	5.0	7.5	188.00005920833792	224	0.1635290416670614	3	1.549995708337519	True
1	4	3	3	left	2	0.5	True	0	4	acc	7.5	10.0	190.5000571249984	227	0.2428582083375658	3	1.751087541662855	True
1	4	3	4	left	2	0.5	True	0	8	acc	10.0	12.5	193.0000664166655	231	0.02595549999387	3	1.8614260833346632	True
1	4	3	5	left	2	0.5	True	0	4	acc	12.5	15.0	195.50006399999984	234	0.6140548333278275	0		False
1	4	3	6	left	2	0.5	True	0	4	acc	15.0	17.5	198.0000566250019	238	0.5327842499973485	3	1.5313377083293744	True
1	4	3	7	left	2	0.5	True	0	4	acc	17.5	20.0	200.50005629166117	242	0.3366275416628923	3	1.3652586249954766	True
1	4	3	8	left	2	0.5	True	0	8	acc	20.0	22.5	203.00007629166063	246	0.3839865000045392	3	1.8071819583274191	True
1	4	3	9	left	2	0.5	True	0	4	acc	22.5	25.0	205.50006045833288	249	0.6729622083366849	3	1.224726250002277	True
1	4	3	10	left	2	0.5	True	0	8	acc	25.0	27.5	208.0000645833352	253	0.6000944583283854	3	1.2960535416714265	True
1	4	3	11	left	2	0.5	True	1	8	acc	27.5	30.0	210.50006199999916	257	0.468447291663324	4	1.5424342499973136	True
1	4	3	0	left	2	0.5	True	0	4	acc	0.0	2.5	323.0002173749963	744	0.375308208327624	4	1.1958586250038934	False
1	4	3	1	left	2	0.5	True	0	4	acc	2.5	5.0	325.5000479166629	751	0.1231181249968358	4	1.0618187500003842	False
1	4	3	2	left	2	0.5	True	0	8	acc	5.0	7.5	328.0000415833274	757	0.2444249583350028	3	1.270157166669378	True
1	4	3	3	left	2	0.5	True	0	4	acc	7.5	10.0	330.50003329166066	762	0.4084451250018901	4	1.161195000000589	False
1	4	3	4	left	2	0.5	True	1	8	acc	10.0	12.5	333.0000534166611	769	0.1503593750021536	3	1.2472770833410325	False
1	4	3	5	left	2	0.5	True	1	4	acc	12.5	15.0	335.5000500416645	775	0.084360041662876	4	1.8070166250035984	True
1	4	3	6	left	2	0.5	True	0	4	acc	15.0	17.5	338.00005791666626	779	0.2446330833336105	3	1.6415655000018887	True
1	4	3	7	left	2	0.5	True	1	8	acc	17.5	20.0	340.50005170832446	786	0.0887532083361293	3	1.4570779583373223	False
1	4	3	8	left	2	0.5	True	0	4	acc	20.0	22.5	343.00005308332766	792	0.2828145833336748	3	1.13811754166818	True
1	4	3	9	left	2	0.5	True	1	4	acc	22.5	25.0	345.5000552083293	799	0.2564024166713352	4	0.8039997083324124	True
1	4	3	10	left	2	0.5	True	1	4	acc	25.0	27.5	348.0000385833264	806	0.2780827916649286	4	1.0876153749995865	True
1	4	3	11	left	2	0.5	True	0	4	acc	27.5	30.0	350.500053666663	813	0.3503392083221115	3	1.3806312916640309	True
2	4	3	0	left	2	0.5	True	1	4	acc	0.0	2.5	358.0002072083371	643	0.3899707500022487	4	1.3059384583248177	True
2	4	3	1	left	2	0.5	True	1	8	acc	2.5	5.0	360.50003424999886	650	0.0318964583348133	3	1.3790579166670796	False
2	4	3	2	left	2	0.5	True	0	8	acc	5.0	7.5	363.00003229167487	655	0.2464165833298466	3	1.9029524166762712	True
2	4	3	3	left	2	0.5	True	0	4	acc	7.5	10.0	365.50003583333455	661	0.1362472916734987	3	1.100785458336759	True
2	4	3	4	left	2	0.5	True	0	8	acc	10.0	12.5	368.00003420833673	667	0.0741318333239178	0		False
2	4	3	5	left	2	0.5	True	0	4	acc	12.5	15.0	370.50003283333353	673	0.0173986249938025	3	1.2539156666680356	True
2	4	3	6	left	2	0.5	True	0	4	acc	15.0	17.5	373.0000281250031	678	0.1389671249999082	3	1.4337012083269656	True
2	4	3	7	left	2	0.5	True	0	4	acc	17.5	20.0	375.50003624999954	684	0.142179833339469	3	1.4862185000019963	True
2	4	3	8	left	2	0.5	True	0	8	acc	20.0	22.5	378.0000331250049	690	0.0932737083276151	0		False
2	4	3	9	left	2	0.5	True	0	4	acc	22.5	25.0	380.5000287083385	696	0.362400666665053	3	1.3563140416663373	True
2	4	3	10	left	2	0.5	True	0	8	acc	25.0	27.5	383.0000298750019	702	0.2796702083287528	3	1.3815474166622153	True
2	4	3	11	left	2	0.5	True	1	8	acc	27.5	30.0	385.5000363333384	708	0.2136381250020349	4	0.9696518749988172	True
1	4	3	0	left	2	0.5	True	0	4	acc	0.0	2.5	393.0002318333354	851	0.3952497083300841	3	0.9703808749982272	True
1	4	3	1	left	2	0.5	True	0	4	acc	2.5	5.0	395.5000572083373	857	0.1451530000049388	3	1.0878708750024089	True
1	4	3	2	left	2	0.5	True	0	8	acc	5.0	7.5	398.0000505833377	862	0.4512651250042836	3	1.384056208335096	True
1	4	3	3	left	2	0.5	True	0	4	acc	7.5	10.0	400.5000452499953	868	0.140401374999783	3	1.680727624996507	True
1	4	3	4	left	2	0.5	True	1	8	acc	10.0	12.5	403.00004924999666	873	0.3144289999981993	4	1.039254166666069	True
1	4	3	5	left	2	0.5	True	1	4	acc	12.5	15.0	405.50005266666994	879	0.0154492916626622	4	0.953194916677603	True
1	4	3	6	left	2	0.5	True	0	4	acc	15.0	17.5	408.00004583333066	884	0.106554916674213	3	1.2230087083371473	True
1	4	3	7	left	2	0.5	True	1	8	acc	17.5	20.0	410.50005787499686	888	0.2881931250012712	4	1.0325546666645096	True
1	4	3	8	left	2	0.5	True	0	4	acc	20.0	22.5	413.00005399999645	894	0.0397071666739066	3	1.3155413333370234	True
1	4	3	9	left	2	0.5	True	1	4	acc	22.5	25.0	415.50005716666783	897	0.4186522916643298	4	0.8643569166670204	True
1	4	3	10	left	2	0.5	True	1	4	acc	25.0	27.5	418.0000544166687	903	0.0766427916678367	4	0.8201057916667196	True
1	4	3	11	left	2	0.5	True	0	4	acc	27.5	30.0	420.50004537499626	908	0.32474616667605	3	0.7370239166775718	True
1	1	2	0	right	2	0.5	True	1	8	acc	0.0	2.5	323.0002183333345	814	0.1296809166669845	1	0.8258792083361186	True
1	1	2	1	right	2	0.5	True	0	8	acc	2.5	5.0	325.5000389166671	818	0.2732687500028987	2	1.7800678749990766	True
1	1	2	2	right	2	0.5	True	1	8	acc	5.0	7.5	328.0000419166681	821	0.425643750000745	1	1.8257057916707709	True
1	1	2	3	right	2	0.5	True	0	8	acc	7.5	10.0	330.50003308333544	826	0.2488912499975413	2	1.9066627499996684	True
1	1	2	4	right	2	0.5	True	0	4	acc	10.0	12.5	333.0000391249996	831	0.2048216666735243	1	0.7726838333255728	False
1	1	2	5	right	2	0.5	True	1	8	acc	12.5	15.0	335.5000370416674	835	0.3663789166675997	1	1.3295811249990948	True
1	1	2	6	right	2	0.5	True	0	8	acc	15.0	17.5	338.0000459166695	839	0.4087439166614786	2	1.259701083326945	True
1	1	2	7	right	2	0.5	True	1	8	acc	17.5	20.0	340.5000337083329	845	0.0448415833234321	1	1.4642852083343314	True
1	1	2	8	right	2	0.5	True	1	4	acc	20.0	22.5	343.00003649999417	850	0.2059996250027325	1	1.3620743333376597	True
1	1	2	9	right	2	0.5	True	1	8	acc	22.5	25.0	345.50003791666677	855	0.3289974583312869	1	1.2364095416633063	True
1	1	2	10	right	2	0.5	True	1	8	acc	25.0	27.5	348.0000422499943	861	0.0420358333358308	1	1.1202674166634097	True
1	1	2	11	right	2	0.5	True	1	4	acc	27.5	30.0	350.5000399583296	866	0.1160922083290643	1	1.131187791674165	True
2	1	2	0	right	2	0.5	True	0	8	acc	0.0	2.5	218.00020237499848	377	0.2691024583327817	2	1.246745500000543	True
2	1	2	1	right	2	0.5	True	0	4	acc	2.5	5.0	220.50003433333768	381	0.3796861666633049	2	0.9246640833298444	True
2	1	2	2	right	2	0.5	True	1	8	acc	5.0	7.5	223.0000259166627	386	0.3328272083308548	1	1.0147576250019483	True
2	1	2	3	right	2	0.5	True	0	8	acc	7.5	10.0	225.50003099999591	391	0.1209234999987529	2	0.80230304167344	True
2	1	2	4	right	2	0.5	True	0	4	acc	10.0	12.5	228.000032750002	395	0.3661473333413596	2	0.7429852916684467	True
2	1	2	5	right	2	0.5	True	1	8	acc	12.5	15.0	230.5000303749985	399	0.3371655833325349	1	1.4690045416646171	True
2	1	2	6	right	2	0.5	True	1	8	acc	15.0	17.5	233.00002508333273	404	0.0752417083349428	1	1.295822749998479	True
2	1	2	7	right	2	0.5	True	0	8	acc	17.5	20.0	235.50002624999615	408	0.2572611249997862	2	1.621467125005438	True
2	1	2	8	right	2	0.5	True	1	8	acc	20.0	22.5	238.0000229583384	412	0.4281753750037751	1	1.3941462916700402	True
2	1	2	9	right	2	0.5	True	0	8	acc	22.5	25.0	240.50002508333273	417	0.0548280000002705	0		False
2	1	2	10	right	2	0.5	True	1	4	acc	25.0	27.5	243.00002745833623	421	0.7964615416640299	2	1.039678291657765	False
2	1	2	11	right	2	0.5	True	1	8	acc	27.5	30.0	245.50003362500135	425	0.495514499998535	1	0.8717163749970496	True
3	1	2	0	right	2	0.5	True	0	4	acc	0.0	2.5	393.00020112499624	664	0.0866431249960442	2	1.5033089999997171	True
3	1	2	1	right	2	0.5	True	1	8	acc	2.5	5.0	395.50002349999704	668	0.063420958329516	2	1.1802046250013518	False
3	1	2	2	right	2	0.5	True	0	4	acc	5.0	7.5	398.0000249583245	673	0.2933494166718446	2	1.140017583325971	True
3	1	2	3	right	2	0.5	True	1	4	acc	7.5	10.0	400.5000244999974	678	0.0186166666680946	1	0.8102684166733525	True
3	1	2	4	right	2	0.5	True	1	8	acc	10.0	12.5	403.0000216249973	682	0.3515776666681631	1	0.9370115833371528	True
3	1	2	5	right	2	0.5	True	0	4	acc	12.5	15.0	405.5000240000009	687	0.0686980000027688	2	1.1930400416604243	True
3	1	2	6	right	2	0.5	True	1	4	acc	15.0	17.5	408.0000306250003	691	0.4037939583286061	2	0.9216260416651494	False
3	1	2	7	right	2	0.5	True	0	8	acc	17.5	20.0	410.5000295416612	696	0.2067055833394988	2	0.8278356666633044	True
3	1	2	8	right	2	0.5	True	0	8	acc	20.0	22.5	413.0000288750016	700	0.3297535000019707	1	1.3159249166637892	False
3	1	2	9	right	2	0.5	True	0	8	acc	22.5	25.0	415.50001983332913	704	0.6267995833331952	2	1.1125573333265493	True
3	1	2	10	right	2	0.5	True	0	4	acc	25.0	27.5	418.0000292916593	707	0.6649505000023055	2	1.5074618333310357	True
3	1	2	11	right	2	0.5	True	1	8	acc	27.5	30.0	420.5000220416623	713	0.097925458336249	2	1.373250750002626	False
4	1	2	0	right	2	0.5	True	1	8	acc	0.0	2.5	148.00019983333186	326	0.3247044999952777	2	1.0358340833336117	False
4	1	2	1	right	2	0.5	True	0	8	acc	2.5	5.0	150.5000269999946	330	0.484451791671745	2	1.186929750001582	True
4	1	2	2	right	2	0.5	True	1	8	acc	5.0	7.5	153.0000286249997	337	0.0924890416717971	1	1.2773847083371948	True
4	1	2	3	right	2	0.5	True	0	8	acc	7.5	10.0	155.50003054166882	342	0.3416565416700905	1	1.1097762499994133	False
4	1	2	4	right	2	0.5	True	0	4	acc	10.0	12.5	158.00003312499757	347	0.3924745416661608	2	0.7664217083292897	True
4	1	2	5	right	2	0.5	True	1	8	acc	12.5	15.0	160.50002941666753	351	0.6194006666628411	2	1.5696443333217758	False
4	1	2	6	right	2	0.5	True	0	8	acc	15.0	17.5	163.00002324999514	352	1.7864283333401545	0		False
4	1	2	7	right	2	0.5	True	1	8	acc	17.5	20.0	165.5000366666718	356	0.0811116249969927	1	1.1674558333324967	True
4	1	2	8	right	2	0.5	True	1	4	acc	20.0	22.5	168.0000218333371	362	0.2270168749964796	2	0.8530373749963474	False
4	1	2	9	right	2	0.5	True	1	8	acc	22.5	25.0	170.50003766667214	369	0.1811680416649324	1	0.7861722499947064	True
4	1	2	10	right	2	0.5	True	1	8	acc	25.0	27.5	173.00003645833203	376	0.3063236666639568	1	0.8124871249965508	True
4	1	2	11	right	2	0.5	True	1	4	acc	27.5	30.0	175.5000300416723	383	0.3131334166610031	1	1.063022208327311	True
1	1	2	0	right	2	0.5	True	0	8	acc	0.0	2.5	428.0002160833319	764	0.2623546249960782	2	1.4792325833332145	True
1	1	2	1	right	2	0.5	True	0	4	acc	2.5	5.0	430.50002650000533	768	0.1632000416648225	2	1.6361285833263537	True
1	1	2	2	right	2	0.5	True	1	8	acc	5.0	7.5	433.0000391249996	773	0.0471655416695284	1	1.2823332916668733	True
1	1	2	3	right	2	0.5	True	0	8	acc	7.5	10.0	435.5000290416647	777	0.3692279583337949	2	0.9540642916690558	True
1	1	2	4	right	2	0.5	True	0	4	acc	10.0	12.5	438.0000316666629	782	0.236509999995178	1	1.4887823749959352	False
1	1	2	5	right	2	0.5	True	1	8	acc	12.5	15.0	440.5000320000035	787	0.0685104583244538	1	0.9719371249957476	True
1	1	2	6	right	2	0.5	True	1	8	acc	15.0	17.5	443.0000320000035	791	0.1693152083389577	1	0.8770351666753413	True
1	1	2	7	right	2	0.5	True	0	8	acc	17.5	20.0	445.5000327916641	795	0.2718751666616299	2	1.3932192499996745	True
1	1	2	8	right	2	0.5	True	1	8	acc	20.0	22.5	448.00003833333176	800	0.2378546249965438	1	0.9255108750003274	True
1	1	2	9	right	2	0.5	True	0	8	acc	22.5	25.0	450.50002941666753	805	0.0476437916659051	2	1.211942291658488	True
1	1	2	10	right	2	0.5	True	1	4	acc	25.0	27.5	453.000038875005	809	0.0288430000000516	1	1.4500021250059945	True
1	1	2	11	right	2	0.5	True	1	8	acc	27.5	30.0	455.50003808332985	814	0.2186986250017071	1	1.3392347916669678	True
2	1	2	0	right	2	0.5	True	0	4	acc	0.0	2.5	148.000207458339	217	0.2018545833270764	2	1.406785958330147	True
2	1	2	1	right	2	0.5	True	1	8	acc	2.5	5.0	150.50002033334022	222	0.2747157083358615	1	1.1709465000021737	True
2	1	2	2	right	2	0.5	True	0	4	acc	5.0	7.5	153.00002250000398	227	0.1988470416690688	2	0.9333637499948964	True
2	1	2	3	right	2	0.5	True	1	4	acc	7.5	10.0	155.5000305416761	233	0.0070217499960563	1	1.0568324583291542	True
2	1	2	4	right	2	0.5	True	1	8	acc	10.0	12.5	158.00002795834007	238	0.2441254166697035	1	1.0930220833251951	True
2	1	2	5	right	2	0.5	True	0	4	acc	12.5	15.0	160.50003079167072	243	0.2727837916681892	2	1.2645092083330385	True
2	1	2	6	right	2	0.5	True	1	4	acc	15.0	17.5	163.0000280416716	249	0.0619499999957042	1	0.9922593750015948	True
2	1	2	7	right	2	0.5	True	0	8	acc	17.5	20.0	165.50002695833973	254	0.3628457083323155	2	1.232525291663478	True
2	1	2	8	right	2	0.5	True	0	8	acc	20.0	22.5	168.00003291667235	260	0.0820723333308706	1	1.710663875004684	False
2	1	2	9	right	2	0.5	True	0	8	acc	22.5	25.0	170.5000294166748	265	0.4046318333348608	2	1.059768916660687	True
2	1	2	10	right	2	0.5	True	0	4	acc	25.0	27.5	173.00003212499723	271	0.2592795833406853	2	1.166326083337481	True
2	1	2	11	right	2	0.5	True	1	8	acc	27.5	30.0	175.5000329583345	277	0.1324358333367854	1	1.240227166665136	True
1	4	3	0	left	2	0.5	True	1	8	acc	0.0	2.5	148.00022083334625	335	0.1731994166621007	3	0.8576416249998147	False
1	4	3	1	left	2	0.5	True	1	4	acc	2.5	5.0	150.5000292083423	340	0.0881743333447957	4	1.1948851666675182	True
1	4	3	2	left	2	0.5	True	1	4	acc	5.0	7.5	153.00003791667405	346	0.0142647083266638	4	1.2535838750045514	True
1	4	3	3	left	2	0.5	True	1	8	acc	7.5	10.0	155.50002816667256	352	0.0810907083359779	4	1.7039296250004554	True
1	4	3	4	left	2	0.5	True	1	8	acc	10.0	12.5	158.00003595835005	357	0.2921854583255481	4	1.3313932083256077	True
1	4	3	5	left	2	0.5	True	1	8	acc	12.5	15.0	160.5000296250073	363	0.1743350833276054	3	1.3856511666672304	False
1	4	3	6	left	2	0.5	True	0	8	acc	15.0	17.5	163.00003429167555	369	0.2462889583403011	4	1.4148143750062443	False
1	4	3	7	left	2	0.5	True	0	4	acc	17.5	20.0	165.50003208334965	375	0.2836341666552471	3	1.2065404999884777	True
1	4	3	8	left	2	0.5	True	1	8	acc	20.0	22.5	168.0000289583404	382	0.1326716250041499	4	1.0046558333269786	True
1	4	3	9	left	2	0.5	True	1	4	acc	22.5	25.0	170.50003570834815	388	0.2555853333324194	4	1.4799296249984764	True
1	4	3	10	left	2	0.5	True	0	8	acc	25.0	27.5	173.0000311666663	395	0.2384634583431761	4	1.1718282916554017	False
1	4	3	11	left	2	0.5	True	1	8	acc	27.5	30.0	175.50002541666618	402	0.1889645416667917	4	0.9178757083282107	True
1	4	3	0	left	2	0.5	True	0	8	acc	0.0	2.5	148.00022879165772	307	0.5979122916760389	3	0.9809778333437862	True
1	4	3	1	left	2	0.5	True	1	8	acc	2.5	5.0	150.500052541669	311	0.0787366250006016	4	1.1927982083434472	True
1	4	3	2	left	2	0.5	True	0	4	acc	5.0	7.5	153.00004695833195	315	0.0477965416648658	3	0.9338873333181256	True
1	4	3	3	left	2	0.5	True	1	4	acc	7.5	10.0	155.50004975000047	319	0.4240920416632434	4	0.9076494583277964	True
1	4	3	4	left	2	0.5	True	0	8	acc	10.0	12.5	158.00004220833944	323	0.3772606249985983	4	0.7364709166722605	False
1	4	3	5	left	2	0.5	True	1	4	acc	12.5	15.0	160.50004662500578	328	0.1370529999985592	3	0.4473533333366504	False
1	4	3	6	left	2	0.5	True	1	8	acc	15.0	17.5	163.0000442083401	332	0.386060874996474	4	1.2125331249990268	True
1	4	3	7	left	2	0.5	True	0	4	acc	17.5	20.0	165.50004058334162	337	0.1480140833300538	3	1.0417995000025255	True
1	4	3	8	left	2	0.5	True	0	4	acc	20.0	22.5	168.00003929166996	341	0.3070878333237488	3	0.9729163333249744	True
1	4	3	9	left	2	0.5	True	0	4	acc	22.5	25.0	170.50004650000483	345	0.3962643333215965	3	1.5751505000080217	True
1	4	3	10	left	2	0.5	True	1	8	acc	25.0	27.5	173.0000415000104	348	0.3004850833531236	4	1.2634777500061318	True
1	4	3	11	left	2	0.5	True	1	8	acc	27.5	30.0	175.50004845832882	353	0.0495117083191871	3	1.197657833341509	False
2	4	3	0	left	2	0.5	True	1	4	acc	0.0	2.5	393.0002291666751	780	0.1580775416805409	3	0.8807308333343826	False
2	4	3	1	left	2	0.5	True	1	4	acc	2.5	5.0	395.5000422083249	785	0.1265345833380706	2	0.8876240833487827	False
2	4	3	2	left	2	0.5	True	1	4	acc	5.0	7.5	398.0000390000059	791	0.2280330000066897	3	0.7568694583314937	False
2	4	3	3	left	2	0.5	True	1	4	acc	7.5	10.0	400.5000400416757	796	0.2601015416585142	3	1.1200107083277544	False
2	4	3	4	left	2	0.5	True	0	8	acc	10.0	12.5	403.00004812500265	801	0.3931940000038594	3	1.4255054999957792	True
2	4	3	5	left	2	0.5	True	0	8	acc	12.5	15.0	405.50004470832937	806	0.2920752916543279	3	1.5371492083213525	True
2	4	3	6	left	2	0.5	True	0	8	acc	15.0	17.5	408.0000402500009	809	0.5749808333348483	3	1.1571901666611666	True
2	4	3	7	left	2	0.5	True	0	8	acc	17.5	20.0	410.50004837500455	813	0.2830495833331952	0		False
2	4	3	8	left	2	0.5	True	0	4	acc	20.0	22.5	413.000045708337	818	0.9845732083340408	3	0.4047109166567679	True
2	4	3	9	left	2	0.5	True	1	4	acc	22.5	25.0	415.5000392916699	820	0.703182958313846	3	1.4474844166688854	False
2	4	3	10	left	2	0.5	True	1	4	acc	25.0	27.5	418.0000430416694	824	1.368968416674761	3	1.8056387083488517	False
2	4	3	11	left	2	0.5	True	1	8	acc	27.5	30.0	420.50004429167893	832	0.01738570832822	0		False
1	4	3	0	left	2	0.5	True	1	4	acc	0.0	2.5	183.000212833329	490	0.271521999995457	4	1.0673774166789372	True
1	4	3	1	left	2	0.5	True	1	8	acc	2.5	5.0	185.500032333337	497	0.2384959583287127	4	0.7553155416680966	True
1	4	3	2	left	2	0.5	True	0	4	acc	5.0	7.5	188.00003733333145	504	0.290685083338758	3	1.198360499998671	True
1	4	3	3	left	2	0.5	True	0	4	acc	7.5	10.0	190.50002804165703	511	0.1835176250024233	3	1.2731477083434584	True
1	4	3	4	left	2	0.5	True	0	4	acc	10.0	12.5	193.0000355000084	518	0.1378973749961005	3	1.7131870000011986	True
1	4	3	5	left	2	0.5	True	1	8	acc	12.5	15.0	195.50002762500665	525	0.0035145833244314	4	1.3587512916710691	True
1	4	3	6	left	2	0.5	True	1	8	acc	15.0	17.5	198.0000372916693	532	0.0388042083359323	4	1.6312714999949094	True
1	4	3	7	left	2	0.5	True	1	8	acc	17.5	20.0	200.50003862500307	539	0.1368391249998239	4	1.309284666669555	True
1	4	3	8	left	2	0.5	True	1	4	acc	20.0	22.5	203.00002783333184	545	0.4639019583410118	4	1.1820469583472004	True
1	4	3	9	left	2	0.5	True	0	4	acc	22.5	25.0	205.5000325000001	552	0.2036918333178619	3	1.2265202499984298	True
1	4	3	10	left	2	0.5	True	1	8	acc	25.0	27.5	208.00003112500417	558	0.4078968333196826	4	1.892582083324669	True
1	4	3	11	left	2	0.5	True	0	4	acc	27.5	30.0	210.5000285000133	565	0.1798653750010999	3	1.6792228333215462	True
2	4	3	0	left	2	0.5	True	1	4	acc	0.0	2.5	183.0002081249986	436	0.0281235000002197	4	1.9788724583340809	True
2	4	3	1	left	2	0.5	True	1	8	acc	2.5	5.0	185.50001833333224	441	0.0917300000000977	4	1.0599603333248524	True
2	4	3	2	left	2	0.5	True	1	8	acc	5.0	7.5	188.0000237916538	447	0.2248831666656769	3	1.386355333335814	False
2	4	3	3	left	2	0.5	True	0	8	acc	7.5	10.0	190.50002970833157	453	0.2980259166652104	0		False
2	4	3	4	left	2	0.5	True	1	4	acc	10.0	12.5	193.00002645832137	460	0.3808817500103032	4	1.009435999993002	True
2	4	3	5	left	2	0.5	True	0	8	acc	12.5	15.0	195.50003062500036	467	0.2119961250136839	0		False
2	4	3	6	left	2	0.5	True	0	8	acc	15.0	17.5	198.0000323749991	473	0.3969493333279388	3	1.6702730000106385	True
2	4	3	7	left	2	0.5	True	1	4	acc	17.5	20.0	200.50002037499507	480	0.0130533749907044	4	1.0333511250064475	True
2	4	3	8	left	2	0.5	True	1	4	acc	20.0	22.5	203.00002762499207	486	0.2833986666664714	4	1.1322249999939231	True
2	4	3	9	left	2	0.5	True	0	4	acc	22.5	25.0	205.50002583333116	493	0.1523625833360711	4	1.6832599583431147	False
2	4	3	10	left	2	0.5	True	1	4	acc	25.0	27.5	208.00003208332055	498	0.2963842083263444	4	1.8366980833234263	True
2	4	3	11	left	2	0.5	True	1	4	acc	27.5	30.0	210.50002808333377	505	0.2141374583443394	4	1.3200551666523097	True
1	4	3	0	left	2	0.5	True	0	8	acc	0.0	2.5	43.0002298749896	96	0.4944903750001685	4	1.2550951250013895	False
1	4	3	1	left	2	0.5	True	0	4	acc	2.5	5.0	45.50004133331822	102	0.1022419999935664	3	1.2530435000080615	True
1	4	3	2	left	2	0.5	True	0	4	acc	5.0	7.5	48.00004258332774	108	0.0644263750000391	3	1.096806041648961	True
1	4	3	3	left	2	0.5	True	1	8	acc	7.5	10.0	50.50003416664549	114	0.2024142083246261	4	0.989746749997721	True
1	4	3	4	left	2	0.5	True	0	4	acc	10.0	12.5	53.00003791664494	121	0.075547666681814	4	1.0086739166727057	False
1	4	3	5	left	2	0.5	True	0	8	acc	12.5	15.0	55.500046916655265	127	0.3225338333286345	3	1.7762170416681329	True
1	4	3	6	left	2	0.5	True	1	8	acc	15.0	17.5	58.000034708325984	133	0.3107747083267895	4	1.7745021250011632	True
1	4	3	7	left	2	0.5	True	0	8	acc	17.5	20.0	60.50003541665501	140	0.2717573749978328	0		False
1	4	3	8	left	2	0.5	True	1	4	acc	20.0	22.5	63.000039958322304	147	0.2327016666531562	4	0.9011311250069411	True
1	4	3	9	left	2	0.5	True	1	4	acc	22.5	25.0	65.50003783332068	154	0.1718337083439109	4	0.760567125005764	True
1	4	3	10	left	2	0.5	True	0	4	acc	25.0	27.5	68.00004041664943	160	0.0096054583264049	3	1.4634505416761383	True
1	4	3	11	left	2	0.5	True	0	8	acc	27.5	30.0	70.50003591664426	165	0.1842056250025052	3	1.2404369166470133	True
2	4	3	0	left	2	0.5	True	0	4	acc	0.0	2.5	253.0002216249995	631	0.0206416666624136	4	0.9557608333270764	False
2	4	3	1	left	2	0.5	True	1	8	acc	2.5	5.0	255.5000172083237	635	0.2784390416636597	4	1.108284250003635	True
2	4	3	2	left	2	0.5	True	1	8	acc	5.0	7.5	258.0000161249918	641	0.2845785833342233	4	0.8924443750001956	True
2	4	3	3	left	2	0.5	True	1	8	acc	7.5	10.0	260.5000152499997	647	0.3314154583349591	4	1.2553063333180037	True
2	4	3	4	left	2	0.5	True	1	4	acc	10.0	12.5	263.0000172916625	653	0.348794708319474	4	0.9264721249928698	True
2	4	3	5	left	2	0.5	True	0	4	acc	12.5	15.0	265.50001741666347	659	0.2770783749874681	3	0.988268250002875	True
2	4	3	6	left	2	0.5	True	0	8	acc	15.0	17.5	268.0000176249887	665	0.2949274166749092	3	1.5615770833246645	True
2	4	3	7	left	2	0.5	True	0	4	acc	17.5	20.0	270.5000280416716	670	0.0550586250028573	3	1.0380531666596653	True
2	4	3	8	left	2	0.5	True	1	4	acc	20.0	22.5	273.00002433331974	676	0.0940571250102948	4	1.347499791663722	True
2	4	3	9	left	2	0.5	True	1	4	acc	22.5	25.0	275.5000280416716	681	0.0866221666656201	0		False
2	4	3	10	left	2	0.5	True	1	8	acc	25.0	27.5	278.00001899999916	686	0.2499192083487287	4	0.6975025416613789	True
2	4	3	11	left	2	0.5	True	0	8	acc	27.5	30.0	280.5000238333305	691	0.3219975833344506	3	1.352316291668103	True
3	4	3	0	left	2	0.5	True	1	8	acc	0.0	2.5	113.00023508333834	254	0.3843734166730428	4	1.4304303749959215	True
3	4	3	1	left	2	0.5	True	0	4	acc	2.5	5.0	115.50004945833643	259	0.2966311249911086	3	1.3956770833174232	True
3	4	3	2	left	2	0.5	True	0	4	acc	5.0	7.5	118.00004062500376	267	0.2499899583490332	3	1.468359666672768	True
3	4	3	3	left	2	0.5	True	1	8	acc	7.5	10.0	120.50004270832868	274	0.0409121666598366	4	1.1461917916603852	True
3	4	3	4	left	2	0.5	True	1	4	acc	10.0	12.5	123.00004975000049	280	0.1961495833384106	4	1.037183874999755	True
3	4	3	5	left	2	0.5	True	1	4	acc	12.5	15.0	125.50004725001054	286	0.1779535833338741	0		False
3	4	3	6	left	2	0.5	True	1	4	acc	15.0	17.5	128.00003979165922	292	0.1913621249987045	4	1.8642385416605975	True
3	4	3	7	left	2	0.5	True	0	8	acc	17.5	20.0	130.50004337501014	298	0.0549800416629295	3	1.9715386249881703	True
3	4	3	8	left	2	0.5	True	1	8	acc	20.0	22.5	133.0000431666558	302	0.50648083332635	0		False
3	4	3	9	left	2	0.5	True	0	4	acc	22.5	25.0	135.50003691666643	308	0.4111582500045188	0		False
3	4	3	10	left	2	0.5	True	0	8	acc	25.0	27.5	138.00004575001367	314	0.4682579999935115	0		False
3	4	3	11	left	2	0.5	True	0	4	acc	27.5	30.0	140.50003666666453	320	0.3350903333339374	3	1.127942624996649	True
4	4	3	0	left	2	0.5	True	0	8	acc	0.0	2.5	393.0002289583208	735	0.1999104583519511	3	0.9763570416689618	True
4	4	3	1	left	2	0.5	True	0	8	acc	2.5	5.0	395.5000329166505	739	0.3376377500098897	3	1.2742133750143694	True
4	4	3	2	left	2	0.5	True	1	8	acc	5.0	7.5	398.00003624999954	743	0.5329674999957206	0		False
4	4	3	3	left	2	0.5	True	0	4	acc	7.5	10.0	400.5000432083325	747	0.2268374999985098	3	1.86214370833477	True
4	4	3	4	left	2	0.5	True	1	4	acc	10.0	12.5	403.0000427083287	750	0.6162070416612551	4	1.4280244166584453	True
4	4	3	5	left	2	0.5	True	1	8	acc	12.5	15.0	405.5000330416515	754	0.4111558750009862	0		False
4	4	3	6	left	2	0.5	True	0	8	acc	15.0	17.5	408.0000454166584	758	0.4820220416731899	3	1.5788406666688388	True
4	4	3	7	left	2	0.5	True	1	8	acc	17.5	20.0	410.5000433333189	762	0.2028870833164546	4	0.9681085416523274	True
4	4	3	8	left	2	0.5	True	1	8	acc	20.0	22.5	413.0000417083211	766	0.2644760416733334	4	1.426170083330362	True
4	4	3	9	left	2	0.5	True	1	4	acc	22.5	25.0	415.5000358749967	770	0.2384036666626343	4	0.7352184166520601	True
4	4	3	10	left	2	0.5	True	0	8	acc	25.0	27.5	418.0000371666538	775	0.0006109166715759	3	1.347010750003392	True
4	4	3	11	left	2	0.5	True	1	8	acc	27.5	30.0	420.5000375833333	778	0.4384269166766898	4	1.7782435416593216	True
5	4	3	0	left	2	0.5	True	1	4	acc	0.0	2.5	358.0002427500003	634	0.7181464583409252	4	1.2626553333248012	True
5	4	3	1	left	2	0.5	True	0	8	acc	2.5	5.0	360.5000500000024	639	0.1048738749959738	0		False
5	4	3	2	left	2	0.5	True	1	8	acc	5.0	7.5	363.00005216666614	643	0.2421918749896576	4	0.7658911666658241	True
5	4	3	3	left	2	0.5	True	1	4	acc	7.5	10.0	365.50005466665607	647	0.5594053333334159	4	1.031986499991035	True
5	4	3	4	left	2	0.5	True	0	4	acc	10.0	12.5	368.00005033332855	652	0.2753346666722791	0		False
5	4	3	5	left	2	0.5	True	0	8	acc	12.5	15.0	370.5000579583284	656	0.4525209166604327	4	0.8550028750032652	False
5	4	3	6	left	2	0.5	True	0	8	acc	15.0	17.5	373.0000564166694	660	0.4532783333270345	3	1.3421958749968326	True
5	4	3	7	left	2	0.5	True	1	8	acc	17.5	20.0	375.5000510416576	664	0.5074027083464898	4	1.1072120000026189	True
5	4	3	8	left	2	0.5	True	0	8	acc	20.0	22.5	378.00005837500794	669	0.1475616250099847	3	1.7012819583469536	True
5	4	3	9	left	2	0.5	True	0	8	acc	22.5	25.0	380.5000597083417	673	0.0964897916710469	0		False
5	4	3	10	left	2	0.5	True	0	4	acc	25.0	27.5	383.000057833342	677	0.1691261666710488	3	0.9929884166631382	True
5	4	3	11	left	2	0.5	True	1	8	acc	27.5	30.0	385.5000556666637	681	0.1048132500000065	4	1.129746291655465	True
6	4	3	0	left	2	0.5	True	0	4	acc	0.0	2.5	358.0002178333234	614	0.4372199583303882	3	0.8426082083315123	True
6	4	3	1	left	2	0.5	True	1	4	acc	2.5	5.0	360.5000413333182	618	0.39713687500625383	4	1.626102708352846	True
6	4	3	2	left	2	0.5	True	0	8	acc	5.0	7.5	363.00003299998934	622	0.13812979166687	0		False
6	4	3	3	left	2	0.5	True	0	4	acc	7.5	10.0	365.5000382500002	626	0.18597487499937415	3	1.4291321666678414	True
6	4	3	4	left	2	0.5	True	1	8	acc	10.0	12.5	368.0000394583185	630	0.24114233332511503	4	1.0140372083260445	True
6	4	3	5	left	2	0.5	True	0	8	acc	12.5	15.0	370.5000363750005	634	0.10338349999801721	3	1.3465875833499013	True
6	4	3	6	left	2	0.5	True	1	8	acc	15.0	17.5	373.0000422083249	637	0.469351583335083	3	1.139865249991999	False
6	4	3	7	left	2	0.5	True	0	8	acc	17.5	20.0	375.50003499999	642	0.18345941667212173	3	1.6660718333150726	True
6	4	3	8	left	2	0.5	True	0	8	acc	20.0	22.5	378.0000431249937	646	0.07367791667638812	3	1.6305359166726703	True
6	4	3	9	left	2	0.5	True	1	8	acc	22.5	25.0	380.500036541649	650	0.20551408332539722	4	1.4403547499969136	True
6	4	3	10	left	2	0.5	True	0	4	acc	25.0	27.5	383.00004329165677	654	0.4367109166778391	3	1.3606127916718833	True
6	4	3	11	left	2	0.5	True	0	4	acc	27.5	30.0	385.5000380833226	658	0.46072750000166707	3	1.6562977499997942	True
