run_num	key_left	key_right	correct_side	trial_type	trial_num	hand	condition	grid_size	num_boxes_lit	num_steps	original_sequence	modified_sequence	original_step_1	original_step_2	original_step_3	display_trial_feedback	trial_dur	sequence_dur	question_dur	iti_dur	start_time	end_time	real_start_time	start_ttl	start_ttl_time	response	rt	correct
1	1	2	left	0	0	right	easy	(3, 4)	2	3	[(0, 3), (2, 1), (1, 1), (0, 2), (2, 2), (2, 0)]	[(0, 3), (2, 1), (1, 1), (0, 2), (0, 1), (1, 0)]	[(0, 3), (2, 1)]	[(1, 1), (0, 2)]	[(2, 2), (2, 0)]	True	7	4	3	0.5	0.0	7.5	5.0008842083625495	0	5.0008852917235345	1	1.2868718333775178	True
1	1	2	right	1	1	right	easy	(3, 4)	2	3	[(1, 3), (0, 2), (0, 3), (2, 3), (0, 1), (1, 2)]	[(1, 3), (0, 2), (0, 0), (2, 2), (0, 1), (1, 2)]	[(1, 3), (0, 2)]	[(0, 3), (2, 3)]	[(0, 1), (1, 2)]	True	7	4	3	0.5	7.5	15.0	12.500823083333673	0	12.500824083341286	2	1.3545982500072569	True
1	1	2	right	1	2	right	hard	(4, 4)	3	3	[(2, 3), (1, 2), (0, 0), (1, 3), (1, 0), (0, 1), (1, 1), (3, 3), (2, 0)]	[(2, 3), (1, 2), (0, 0), (1, 3), (1, 0), (0, 1), (2, 2), (0, 3), (0, 2)]	[(2, 3), (1, 2), (0, 0)]	[(1, 3), (1, 0), (0, 1)]	[(1, 1), (3, 3), (2, 0)]	True	7	4	3	0.5	15.0	22.5	20.000752208405174	0	20.00075329176616	3	2.0832424166146666	False
1	1	2	left	0	3	right	hard	(4, 4)	3	3	[(2, 3), (0, 0), (0, 2), (1, 0), (0, 1), (0, 3), (2, 2), (1, 1), (1, 2)]	[(1, 3), (2, 1), (3, 2), (1, 0), (0, 1), (0, 3), (2, 2), (1, 1), (1, 2)]	[(2, 3), (0, 0), (0, 2)]	[(1, 0), (0, 1), (0, 3)]	[(2, 2), (1, 1), (1, 2)]	True	7	4	3	0.5	22.5	30.0	27.50073125003837	0	27.500732250045985	2	1.540953208343126	False
1	1	2	right	1	0	right	easy	(3, 4)	2	3	[(0, 3), (1, 3), (2, 3), (1, 2), (2, 2), (1, 1)]	[(2, 1), (1, 0), (2, 3), (1, 2), (2, 2), (1, 1)]	[(0, 3), (1, 3)]	[(2, 3), (1, 2)]	[(2, 2), (1, 1)]	True	7	4	3	0.5	0.0	7.5	5.000846541603096	0	5.00084754161071	2	1.212894666590728	True
1	1	2	right	1	1	right	easy	(3, 4)	2	3	[(2, 1), (1, 3), (0, 3), (1, 2), (2, 3), (2, 0)]	[(2, 1), (1, 3), (1, 0), (2, 2), (2, 3), (2, 0)]	[(2, 1), (1, 3)]	[(0, 3), (1, 2)]	[(2, 3), (2, 0)]	True	7	4	3	0.5	7.5	15.0	12.500917749945074	0	12.500919333193451	1	1.3544604583876207	False
1	1	2	left	0	2	right	hard	(4, 4)	3	3	[(2, 0), (1, 1), (3, 2), (3, 3), (3, 0), (1, 0), (3, 1), (0, 1), (2, 2)]	[(2, 0), (1, 1), (3, 2), (0, 0), (2, 3), (2, 1), (3, 1), (0, 1), (2, 2)]	[(2, 0), (1, 1), (3, 2)]	[(3, 3), (3, 0), (1, 0)]	[(3, 1), (0, 1), (2, 2)]	True	7	4	3	0.5	15.0	22.5	20.000809999997728	0	20.000811000005346	2	1.5706090000458062	False
1	1	2	left	0	3	right	hard	(4, 4)	3	3	[(2, 0), (3, 2), (1, 2), (1, 3), (3, 1), (1, 0), (2, 1), (0, 2), (2, 3)]	[(2, 0), (3, 2), (1, 2), (1, 3), (3, 1), (1, 0), (1, 1), (3, 3), (0, 3)]	[(2, 0), (3, 2), (1, 2)]	[(1, 3), (3, 1), (1, 0)]	[(2, 1), (0, 2), (2, 3)]	True	7	4	3	0.5	22.5	30.0	27.500744166667573	0	27.500745124998502	2	1.1223819582955912	False
1	1	2	right	1	0	right	easy	(3, 4)	2	3	[(0, 0), (0, 1), (1, 0), (1, 1), (2, 1), (0, 2)]	[(0, 0), (0, 1), (1, 0), (1, 1), (1, 2), (2, 0)]	[(0, 0), (0, 1)]	[(1, 0), (1, 1)]	[(2, 1), (0, 2)]	True	7	4	3	0.5	0.0	7.5	75.00077345827594	0	75.00077454163693	1	1.5063617082778364	False
1	1	2	left	0	1	right	easy	(3, 4)	2	3	[(2, 2), (0, 1), (0, 2), (0, 0), (0, 3), (1, 2)]	[(2, 2), (0, 1), (0, 2), (0, 0), (1, 1), (2, 1)]	[(2, 2), (0, 1)]	[(0, 2), (0, 0)]	[(0, 3), (1, 2)]	True	7	4	3	0.5	7.5	15.0	82.50057733326685	0	82.50057833327446	1	1.276134500047192	True
1	1	2	right	1	2	right	hard	(4, 4)	3	3	[(2, 1), (3, 0), (2, 2), (3, 2), (3, 1), (2, 3), (1, 1), (3, 3), (2, 0)]	[(1, 3), (1, 2), (1, 0), (3, 2), (3, 1), (2, 3), (1, 1), (3, 3), (2, 0)]	[(2, 1), (3, 0), (2, 2)]	[(3, 2), (3, 1), (2, 3)]	[(1, 1), (3, 3), (2, 0)]	True	7	4	3	0.5	15.0	22.5	90.00056704157032	0	90.00056800001767	1	1.7949405834078789	False
1	1	2	left	0	3	right	hard	(4, 4)	3	3	[(2, 3), (2, 2), (3, 0), (3, 2), (2, 1), (3, 3), (1, 2), (3, 1), (1, 1)]	[(0, 1), (0, 2), (1, 3), (3, 2), (2, 1), (3, 3), (1, 2), (3, 1), (1, 1)]	[(2, 3), (2, 2), (3, 0)]	[(3, 2), (2, 1), (3, 3)]	[(1, 2), (3, 1), (1, 1)]	True	7	4	3	0.5	22.5	30.0	97.50056266656613	0	97.50056366657373	1	1.6770162500906736	True
1	1	2	right	1	0	right	easy	(3, 4)	2	3	[(2, 2), (0, 2), (2, 3), (2, 1), (1, 1), (1, 3)]	[(2, 2), (0, 2), (1, 2), (1, 0), (1, 1), (1, 3)]	[(2, 2), (0, 2)]	[(2, 3), (2, 1)]	[(1, 1), (1, 3)]	True	7	4	3	0.5	0.0	7.5	5.00082729163114	0	5.000828249962069	2	1.1723280417500064	True
1	1	2	right	1	1	right	easy	(3, 4)	2	3	[(1, 2), (0, 1), (2, 2), (1, 3), (2, 1), (0, 0)]	[(1, 2), (0, 1), (2, 2), (1, 3), (0, 3), (2, 3)]	[(1, 2), (0, 1)]	[(2, 2), (1, 3)]	[(2, 1), (0, 0)]	True	7	4	3	0.5	7.5	15.0	12.500630791648293	0	12.500631833216175	2	1.5157852084375918	True
1	1	2	left	0	2	right	hard	(4, 4)	3	3	[(3, 3), (1, 0), (0, 3), (2, 3), (1, 3), (0, 0), (0, 2), (1, 1), (2, 0)]	[(3, 3), (1, 0), (0, 3), (3, 0), (0, 1), (1, 2), (0, 2), (1, 1), (2, 0)]	[(3, 3), (1, 0), (0, 3)]	[(2, 3), (1, 3), (0, 0)]	[(0, 2), (1, 1), (2, 0)]	True	7	4	3	0.5	15.0	22.5	20.00066662498284	0	20.000667624990456	1	1.776532249990851	True
1	1	2	left	0	3	right	hard	(4, 4)	3	3	[(1, 3), (1, 1), (0, 0), (2, 1), (2, 3), (0, 3), (1, 2), (2, 2), (1, 0)]	[(0, 2), (2, 0), (3, 3), (2, 1), (2, 3), (0, 3), (1, 2), (2, 2), (1, 0)]	[(1, 3), (1, 1), (0, 0)]	[(2, 1), (2, 3), (0, 3)]	[(1, 2), (2, 2), (1, 0)]	True	7	4	3	0.5	22.5	30.0	27.500581708271056	0	27.50058270827867	2	1.498446875018999	False
1	1	2	right	1	0	right	easy	(3, 4)	2	3	[(1, 3), (0, 3), (0, 2), (1, 2), (2, 2), (1, 1)]	[(1, 0), (0, 1), (0, 2), (1, 2), (2, 2), (1, 1)]	[(1, 3), (0, 3)]	[(0, 2), (1, 2)]	[(2, 2), (1, 1)]	True	7	4	3	0.5	0.0	7.5	5.000859416555613	0	5.000860375002958	2	0.982324874959886	True
1	1	2	left	0	1	right	easy	(3, 4)	2	3	[(0, 1), (2, 0), (1, 1), (0, 0), (1, 0), (0, 2)]	[(0, 1), (2, 0), (1, 1), (0, 0), (2, 1), (1, 2)]	[(0, 1), (2, 0)]	[(1, 1), (0, 0)]	[(1, 0), (0, 2)]	True	7	4	3	0.5	7.5	15.0	12.500758624984885	0	12.500759624992495	1	1.2560107499593869	True
1	1	2	right	1	2	right	hard	(4, 4)	3	3	[(2, 0), (1, 1), (1, 0), (3, 0), (0, 1), (1, 2), (3, 1), (0, 0), (0, 2)]	[(1, 3), (2, 2), (3, 2), (3, 0), (0, 1), (1, 2), (3, 1), (0, 0), (0, 2)]	[(2, 0), (1, 1), (1, 0)]	[(3, 0), (0, 1), (1, 2)]	[(3, 1), (0, 0), (0, 2)]	True	7	4	3	0.5	15.0	22.5	20.00063758320175	0	20.00063858320937	2	1.3951894999481738	True
1	1	2	left	0	3	right	hard	(4, 4)	3	3	[(2, 0), (1, 0), (3, 1), (3, 2), (2, 1), (1, 1), (0, 1), (3, 3), (1, 2)]	[(2, 2), (0, 2), (1, 3), (3, 2), (2, 1), (1, 1), (0, 1), (3, 3), (1, 2)]	[(2, 0), (1, 0), (3, 1)]	[(3, 2), (2, 1), (1, 1)]	[(0, 1), (3, 3), (1, 2)]	True	7	4	3	0.5	22.5	30.0	27.500645791646093	0	27.500646749977022	2	1.1098069165600464	False
1	1	2	right	1	0	right	easy	(3, 4)	2	3	[(0, 0), (2, 0), (0, 1), (1, 0), (2, 1), (1, 1)]	[(1, 2), (2, 2), (0, 1), (1, 0), (2, 1), (1, 1)]	[(0, 0), (2, 0)]	[(0, 1), (1, 0)]	[(2, 1), (1, 1)]	True	7	4	3	0.5	0.0	7.5	5.000806333147921	0	5.000807374948636	2	1.086324958363548	True
1	1	2	right	1	1	right	easy	(3, 4)	2	3	[(2, 2), (1, 3), (1, 2), (2, 1), (1, 1), (2, 3)]	[(2, 2), (1, 3), (1, 2), (2, 1), (2, 0), (0, 2)]	[(2, 2), (1, 3)]	[(1, 2), (2, 1)]	[(1, 1), (2, 3)]	True	7	4	3	0.5	7.5	15.0	12.500632083159871	0	12.500633124960586	2	0.5103942500427365	True
1	1	2	right	1	2	right	hard	(4, 4)	3	3	[(1, 2), (1, 1), (2, 3), (0, 1), (2, 1), (2, 2), (3, 3), (3, 2), (2, 0)]	[(1, 2), (1, 1), (2, 3), (0, 1), (2, 1), (2, 2), (0, 0), (1, 3), (0, 2)]	[(1, 2), (1, 1), (2, 3)]	[(0, 1), (2, 1), (2, 2)]	[(3, 3), (3, 2), (2, 0)]	True	7	4	3	0.5	15.0	22.5	20.000714958179746	0	20.000715958187357	2	0.8346125832758844	True
1	1	2	left	0	3	right	hard	(4, 4)	3	3	[(1, 3), (0, 0), (1, 0), (0, 1), (0, 3), (1, 2), (2, 3), (0, 2), (2, 0)]	[(1, 1), (2, 2), (2, 1), (0, 1), (0, 3), (1, 2), (2, 3), (0, 2), (2, 0)]	[(1, 3), (0, 0), (1, 0)]	[(0, 1), (0, 3), (1, 2)]	[(2, 3), (0, 2), (2, 0)]	True	7	4	3	0.5	22.5	30.0	27.500597333186303	0	27.500598291517235	1	1.3744614999741316	True
1	1	2	left	0	0	right	easy	(3, 4)	2	3	[(2, 0), (1, 0), (2, 1), (0, 0), (2, 2), (0, 1)]	[(2, 0), (1, 0), (1, 1), (1, 2), (2, 2), (0, 1)]	[(2, 0), (1, 0)]	[(2, 1), (0, 0)]	[(2, 2), (0, 1)]	True	7	4	3	0.5	0.0	7.5	285.00075120839756	0	285.0007522084052	1	1.4387278748909011	True
1	1	2	left	0	1	right	easy	(3, 4)	2	3	[(0, 0), (1, 0), (0, 1), (1, 1), (1, 2), (2, 1)]	[(0, 0), (1, 0), (0, 1), (1, 1), (0, 2), (2, 0)]	[(0, 0), (1, 0)]	[(0, 1), (1, 1)]	[(1, 2), (2, 1)]	True	7	4	3	0.5	7.5	15.0	292.50064774998464	0	292.50064870831557	1	1.15040404163301	True
1	1	2	right	1	2	right	hard	(4, 4)	3	3	[(2, 3), (3, 2), (1, 1), (2, 2), (1, 2), (3, 1), (0, 1), (3, 0), (2, 1)]	[(2, 3), (3, 2), (1, 1), (2, 2), (1, 2), (3, 1), (3, 3), (1, 3), (1, 0)]	[(2, 3), (3, 2), (1, 1)]	[(2, 2), (1, 2), (3, 1)]	[(0, 1), (3, 0), (2, 1)]	True	7	4	3	0.5	15.0	22.5	300.00092012505047	0	300.00092112494167	2	1.2759704584022984	True
1	1	2	right	1	3	right	hard	(4, 4)	3	3	[(2, 0), (0, 0), (0, 2), (1, 0), (3, 0), (2, 1), (2, 2), (3, 1), (0, 1)]	[(2, 0), (0, 0), (0, 2), (1, 0), (3, 0), (2, 1), (0, 3), (1, 1), (1, 2)]	[(2, 0), (0, 0), (0, 2)]	[(1, 0), (3, 0), (2, 1)]	[(2, 2), (3, 1), (0, 1)]	True	7	4	3	0.5	22.5	30.0	307.500634624972	0	307.5006356249796	1	1.930014624958858	False
1	1	2	left	0	0	right	easy	(3, 4)	2	3	[(2, 0), (1, 0), (2, 1), (0, 0), (2, 2), (0, 1)]	[(2, 0), (1, 0), (1, 1), (1, 2), (2, 2), (0, 1)]	[(2, 0), (1, 0)]	[(2, 1), (0, 0)]	[(2, 2), (0, 1)]	True	7	4	3	0.5	0.0	7.5	285.0010529999854	0	285.0010540416697	0		False
1	1	2	left	0	1	right	easy	(3, 4)	2	3	[(0, 0), (1, 0), (0, 1), (1, 1), (1, 2), (2, 1)]	[(0, 0), (1, 0), (0, 1), (1, 1), (0, 2), (2, 0)]	[(0, 0), (1, 0)]	[(0, 1), (1, 1)]	[(1, 2), (2, 1)]	True	7	4	3	0.5	7.5	15.0	292.50058299989905	0	292.50058399990667	0		False
1	1	2	right	1	2	right	hard	(4, 4)	3	3	[(2, 3), (3, 2), (1, 1), (2, 2), (1, 2), (3, 1), (0, 1), (3, 0), (2, 1)]	[(2, 3), (3, 2), (1, 1), (2, 2), (1, 2), (3, 1), (3, 3), (1, 3), (1, 0)]	[(2, 3), (3, 2), (1, 1)]	[(2, 2), (1, 2), (3, 1)]	[(0, 1), (3, 0), (2, 1)]	True	7	4	3	0.5	15.0	22.5	300.00058845838066	0	300.00058945827186	0		False
1	1	2	right	1	3	right	hard	(4, 4)	3	3	[(2, 0), (0, 0), (0, 2), (1, 0), (3, 0), (2, 1), (2, 2), (3, 1), (0, 1)]	[(2, 0), (0, 0), (0, 2), (1, 0), (3, 0), (2, 1), (0, 3), (1, 1), (1, 2)]	[(2, 0), (0, 0), (0, 2)]	[(1, 0), (3, 0), (2, 1)]	[(2, 2), (3, 1), (0, 1)]	True	7	4	3	0.5	22.5	30.0	307.5005826249253	0	307.5005836249329	0		False
1	1	2	right	1	0	right	easy	(3, 4)	2	3	[(0, 0), (2, 0), (0, 1), (1, 0), (2, 1), (1, 1)]	[(1, 2), (2, 2), (0, 1), (1, 0), (2, 1), (1, 1)]	[(0, 0), (2, 0)]	[(0, 1), (1, 0)]	[(2, 1), (1, 1)]	True	7	4	3	0.5	0.0	7.5	5.000849041622132	0	5.000850083306432	1	1.650434291805141	False
1	1	2	right	1	1	right	easy	(3, 4)	2	3	[(2, 2), (1, 3), (1, 2), (2, 1), (1, 1), (2, 3)]	[(2, 2), (1, 3), (1, 2), (2, 1), (2, 0), (0, 2)]	[(2, 2), (1, 3)]	[(1, 2), (2, 1)]	[(1, 1), (2, 3)]	True	7	4	3	0.5	7.5	15.0	12.50077820837032	0	12.500779208377937	3	1.6196185416774824	False
1	1	2	right	1	2	right	hard	(4, 4)	3	3	[(1, 2), (1, 1), (2, 3), (0, 1), (2, 1), (2, 2), (3, 3), (3, 2), (2, 0)]	[(1, 2), (1, 1), (2, 3), (0, 1), (2, 1), (2, 2), (0, 0), (1, 3), (0, 2)]	[(1, 2), (1, 1), (2, 3)]	[(0, 1), (2, 1), (2, 2)]	[(3, 3), (3, 2), (2, 0)]	True	7	4	3	0.5	15.0	22.5	20.0006250833394	0	20.00062595831696	3	2.889889541664161	False
1	1	2	left	0	3	right	hard	(4, 4)	3	3	[(1, 3), (0, 0), (1, 0), (0, 1), (0, 3), (1, 2), (2, 3), (0, 2), (2, 0)]	[(1, 1), (2, 2), (2, 1), (0, 1), (0, 3), (1, 2), (2, 3), (0, 2), (2, 0)]	[(1, 3), (0, 0), (1, 0)]	[(0, 1), (0, 3), (1, 2)]	[(2, 3), (0, 2), (2, 0)]	True	7	4	3	0.5	22.5	30.0	27.50057266652584	0	27.500573708326556	3	2.995671375072561	False
1	1	2	right	1	0	right	easy	(3, 4)	2	3	[(0, 0), (2, 0), (0, 1), (1, 0), (2, 1), (1, 1)]	[(1, 2), (2, 2), (0, 1), (1, 0), (2, 1), (1, 1)]	[(0, 0), (2, 0)]	[(0, 1), (1, 0)]	[(2, 1), (1, 1)]	True	7	4	3	0.5	0.0	7.5	5.000850500073284	0	5.000851500080898	2	1.3166532082250342	True
1	1	2	right	1	1	right	easy	(3, 4)	2	3	[(2, 2), (1, 3), (1, 2), (2, 1), (1, 1), (2, 3)]	[(2, 2), (1, 3), (1, 2), (2, 1), (2, 0), (0, 2)]	[(2, 2), (1, 3)]	[(1, 2), (2, 1)]	[(1, 1), (2, 3)]	True	7	4	3	0.5	7.5	15.0	12.500737416674385	0	12.500738458242267	4	0.7582260833587497	False
1	1	2	right	1	2	right	hard	(4, 4)	3	3	[(1, 2), (1, 1), (2, 3), (0, 1), (2, 1), (2, 2), (3, 3), (3, 2), (2, 0)]	[(1, 2), (1, 1), (2, 3), (0, 1), (2, 1), (2, 2), (0, 0), (1, 3), (0, 2)]	[(1, 2), (1, 1), (2, 3)]	[(0, 1), (2, 1), (2, 2)]	[(3, 3), (3, 2), (2, 0)]	True	7	4	3	0.5	15.0	22.5	20.00063162506558	0	20.00063270831015	3	1.4697395417606458	False
1	1	2	left	0	3	right	hard	(4, 4)	3	3	[(1, 3), (0, 0), (1, 0), (0, 1), (0, 3), (1, 2), (2, 3), (0, 2), (2, 0)]	[(1, 1), (2, 2), (2, 1), (0, 1), (0, 3), (1, 2), (2, 3), (0, 2), (2, 0)]	[(1, 3), (0, 0), (1, 0)]	[(0, 1), (0, 3), (1, 2)]	[(2, 3), (0, 2), (2, 0)]	True	7	4	3	0.5	22.5	30.0	27.50058008334599	0	27.500581125030298	2	2.0976530417101458	False
1	1	2	right	1	0	right	easy	(3, 4)	2	3	[(0, 0), (2, 0), (0, 1), (1, 0), (2, 1), (1, 1)]	[(1, 2), (2, 2), (0, 1), (1, 0), (2, 1), (1, 1)]	[(0, 0), (2, 0)]	[(0, 1), (1, 0)]	[(2, 1), (1, 1)]	True	7	4	3	0.5	0.0	7.5	5.000847041606903	0	5.000848083407618	2	0.5254437915282324	True
1	1	2	right	1	1	right	easy	(3, 4)	2	3	[(2, 2), (1, 3), (1, 2), (2, 1), (1, 1), (2, 3)]	[(2, 2), (1, 3), (1, 2), (2, 1), (2, 0), (0, 2)]	[(2, 2), (1, 3)]	[(1, 2), (2, 1)]	[(1, 1), (2, 3)]	True	7	4	3	0.5	7.5	15.0	12.500667750020511	0	12.500668874941766	2	0.45150504168123	True
1	1	2	right	1	2	right	hard	(4, 4)	3	3	[(1, 2), (1, 1), (2, 3), (0, 1), (2, 1), (2, 2), (3, 3), (3, 2), (2, 0)]	[(1, 2), (1, 1), (2, 3), (0, 1), (2, 1), (2, 2), (0, 0), (1, 3), (0, 2)]	[(1, 2), (1, 1), (2, 3)]	[(0, 1), (2, 1), (2, 2)]	[(3, 3), (3, 2), (2, 0)]	True	7	4	3	0.5	15.0	22.5	20.000644916668534	0	20.00064591667615	2	0.9926192081766204	True
1	1	2	left	0	3	right	hard	(4, 4)	3	3	[(1, 3), (0, 0), (1, 0), (0, 1), (0, 3), (1, 2), (2, 3), (0, 2), (2, 0)]	[(1, 1), (2, 2), (2, 1), (0, 1), (0, 3), (1, 2), (2, 3), (0, 2), (2, 0)]	[(1, 3), (0, 0), (1, 0)]	[(0, 1), (0, 3), (1, 2)]	[(2, 3), (0, 2), (2, 0)]	True	7	4	3	0.5	22.5	30.0	27.500668375054374	0	27.50066945841536	1	1.2633159999968484	True
1	1	2	left	0	0	right	easy	(3, 4)	2	3	[(0, 1), (1, 3), (0, 3), (2, 3), (0, 0), (1, 1)]	[(0, 1), (1, 3), (2, 1), (1, 0), (0, 0), (1, 1)]	[(0, 1), (1, 3)]	[(0, 3), (2, 3)]	[(0, 0), (1, 1)]	True	7	4	3	0.5	0.0	7.5	8.000843458226882	0	8.000844458234496	2	1.4882952499901876	False
1	1	2	right	1	1	right	easy	(3, 4)	2	3	[(2, 3), (0, 0), (1, 0), (2, 2), (0, 1), (1, 1)]	[(2, 3), (0, 0), (0, 2), (1, 3), (0, 1), (1, 1)]	[(2, 3), (0, 0)]	[(1, 0), (2, 2)]	[(0, 1), (1, 1)]	True	7	4	3	0.5	7.5	15.0	15.500629458227197	0	15.50063050002791	2	1.4169439167017115	True
1	1	2	left	0	2	right	hard	(4, 4)	3	3	[(1, 1), (1, 0), (0, 0), (0, 1), (2, 0), (2, 1), (2, 2), (1, 2), (3, 1)]	[(1, 3), (0, 2), (2, 3), (0, 1), (2, 0), (2, 1), (2, 2), (1, 2), (3, 1)]	[(1, 1), (1, 0), (0, 0)]	[(0, 1), (2, 0), (2, 1)]	[(2, 2), (1, 2), (3, 1)]	True	7	4	3	0.5	15.0	22.5	23.000635833246633	0	23.000636833254248	1	1.3153858333826065	True
1	1	2	right	1	3	right	hard	(4, 4)	3	3	[(3, 2), (3, 0), (0, 0), (3, 1), (2, 0), (2, 2), (1, 0), (2, 1), (1, 2)]	[(1, 1), (2, 3), (1, 3), (3, 1), (2, 0), (2, 2), (1, 0), (2, 1), (1, 2)]	[(3, 2), (3, 0), (0, 0)]	[(3, 1), (2, 0), (2, 2)]	[(1, 0), (2, 1), (1, 2)]	True	7	4	3	0.5	22.5	30.0	30.500653250026517	0	30.5006542915944	2	1.1772681250004098	True
1	1	2	left	0	0	right	easy	(3, 4)	2	3	[(0, 0), (1, 3), (0, 3), (1, 0), (1, 2), (0, 1)]	[(0, 0), (1, 3), (0, 2), (2, 3), (1, 2), (0, 1)]	[(0, 0), (1, 3)]	[(0, 3), (1, 0)]	[(1, 2), (0, 1)]	True	7	4	3	0.5	0.0	7.5	148.00087512505706	0	148.00087620841805	2	0.7674726250115782	False
1	1	2	right	1	1	right	easy	(3, 4)	2	3	[(1, 1), (2, 3), (2, 2), (2, 1), (2, 0), (1, 0)]	[(1, 1), (2, 3), (2, 2), (2, 1), (1, 3), (0, 1)]	[(1, 1), (2, 3)]	[(2, 2), (2, 1)]	[(2, 0), (1, 0)]	True	7	4	3	0.5	7.5	15.0	155.5006872083759	0	155.50068833341356	2	0.7791655416367576	True
1	1	2	left	0	2	right	hard	(4, 4)	3	3	[(3, 0), (2, 1), (0, 0), (0, 1), (3, 1), (2, 2), (2, 0), (1, 2), (3, 2)]	[(3, 0), (2, 1), (0, 0), (0, 1), (3, 1), (2, 2), (2, 3), (0, 2), (1, 1)]	[(3, 0), (2, 1), (0, 0)]	[(0, 1), (3, 1), (2, 2)]	[(2, 0), (1, 2), (3, 2)]	True	7	4	3	0.5	15.0	22.5	163.00070204178337	0	163.00070308346767	2	1.2231980833457785	False
1	1	2	left	0	3	right	hard	(4, 4)	3	3	[(1, 0), (2, 3), (2, 1), (3, 3), (0, 0), (2, 2), (3, 2), (1, 2), (1, 3)]	[(1, 0), (2, 3), (2, 1), (3, 3), (0, 0), (2, 2), (0, 1), (3, 1), (2, 0)]	[(1, 0), (2, 3), (2, 1)]	[(3, 3), (0, 0), (2, 2)]	[(3, 2), (1, 2), (1, 3)]	True	7	4	3	0.5	22.5	30.0	170.5006771668559	0	170.50067825010046	1	0.9333684166194872	True
1	1	2	left	0	0	right	easy	(3, 4)	2	3	[(0, 0), (1, 3), (0, 3), (1, 0), (1, 2), (0, 1)]	[(0, 0), (1, 3), (0, 2), (2, 3), (1, 2), (0, 1)]	[(0, 0), (1, 3)]	[(0, 3), (1, 0)]	[(1, 2), (0, 1)]	True	7	4	3	0.5	0.0	7.5	148.00088549999057	0	148.00088654167484	1	1.1442263333592564	True
1	1	2	right	1	1	right	easy	(3, 4)	2	3	[(1, 1), (2, 3), (2, 2), (2, 1), (2, 0), (1, 0)]	[(1, 1), (2, 3), (2, 2), (2, 1), (1, 3), (0, 1)]	[(1, 1), (2, 3)]	[(2, 2), (2, 1)]	[(2, 0), (1, 0)]	True	7	4	3	0.5	7.5	15.0	155.50064487499185	0	155.50064591667615	2	1.0930450417799875	True
1	1	2	left	0	2	right	hard	(4, 4)	3	3	[(3, 0), (2, 1), (0, 0), (0, 1), (3, 1), (2, 2), (2, 0), (1, 2), (3, 2)]	[(3, 0), (2, 1), (0, 0), (0, 1), (3, 1), (2, 2), (2, 3), (0, 2), (1, 1)]	[(3, 0), (2, 1), (0, 0)]	[(0, 1), (3, 1), (2, 2)]	[(2, 0), (1, 2), (3, 2)]	True	7	4	3	0.5	15.0	22.5	163.00080037501175	0	163.00080137501936	2	0.9591438333736731	False
1	1	2	left	0	3	right	hard	(4, 4)	3	3	[(1, 0), (2, 3), (2, 1), (3, 3), (0, 0), (2, 2), (3, 2), (1, 2), (1, 3)]	[(1, 0), (2, 3), (2, 1), (3, 3), (0, 0), (2, 2), (0, 1), (3, 1), (2, 0)]	[(1, 0), (2, 3), (2, 1)]	[(3, 3), (0, 0), (2, 2)]	[(3, 2), (1, 2), (1, 3)]	True	7	4	3	0.5	22.5	30.0	170.50070954172406	0	170.50071058340836	1	1.084268999984488	True
1	1	2	left	0	0	right	easy	(3, 4)	2	3	[(0, 0), (1, 3), (0, 3), (1, 0), (1, 2), (0, 1)]	[(0, 0), (1, 3), (0, 2), (2, 3), (1, 2), (0, 1)]	[(0, 0), (1, 3)]	[(0, 3), (1, 0)]	[(1, 2), (0, 1)]	True	7	4	3	0.5	0.0	7.5	148.00086300005205	0	148.0008641249733	1	1.2096159582724797	True
1	1	2	right	1	1	right	easy	(3, 4)	2	3	[(1, 1), (2, 3), (2, 2), (2, 1), (2, 0), (1, 0)]	[(1, 1), (2, 3), (2, 2), (2, 1), (1, 3), (0, 1)]	[(1, 1), (2, 3)]	[(2, 2), (2, 1)]	[(2, 0), (1, 0)]	True	7	4	3	0.5	7.5	15.0	155.50061670842115	0	155.50061779166572	2	1.9673269166378304	True
1	1	2	left	0	2	right	hard	(4, 4)	3	3	[(3, 0), (2, 1), (0, 0), (0, 1), (3, 1), (2, 2), (2, 0), (1, 2), (3, 2)]	[(3, 0), (2, 1), (0, 0), (0, 1), (3, 1), (2, 2), (2, 3), (0, 2), (1, 1)]	[(3, 0), (2, 1), (0, 0)]	[(0, 1), (3, 1), (2, 2)]	[(2, 0), (1, 2), (3, 2)]	True	7	4	3	0.5	15.0	22.5	163.00060454162303	0	163.00060562498402	1	1.6712366667343304	True
1	1	2	left	0	3	right	hard	(4, 4)	3	3	[(1, 0), (2, 3), (2, 1), (3, 3), (0, 0), (2, 2), (3, 2), (1, 2), (1, 3)]	[(1, 0), (2, 3), (2, 1), (3, 3), (0, 0), (2, 2), (0, 1), (3, 1), (2, 0)]	[(1, 0), (2, 3), (2, 1)]	[(3, 3), (0, 0), (2, 2)]	[(3, 2), (1, 2), (1, 3)]	True	7	4	3	0.5	22.5	30.0	170.5005971250357	0	170.5005981666036	1	0.8272655416512862	True
1	1	2	left	0	0	right	easy	(3, 4)	2	3	[(0, 0), (1, 3), (0, 3), (1, 0), (1, 2), (0, 1)]	[(0, 0), (1, 3), (0, 2), (2, 3), (1, 2), (0, 1)]	[(0, 0), (1, 3)]	[(0, 3), (1, 0)]	[(1, 2), (0, 1)]	True	7	4	3	0.5	0.0	7.5	148.00078787491657	0	148.00078891671728	2	1.506172833382152	False
1	1	2	right	1	1	right	easy	(3, 4)	2	3	[(1, 1), (2, 3), (2, 2), (2, 1), (2, 0), (1, 0)]	[(1, 1), (2, 3), (2, 2), (2, 1), (1, 3), (0, 1)]	[(1, 1), (2, 3)]	[(2, 2), (2, 1)]	[(2, 0), (1, 0)]	True	7	4	3	0.5	7.5	15.0	155.5005877916701	0	155.5005888333544	1	1.0583040833007544	False
1	1	2	left	0	2	right	hard	(4, 4)	3	3	[(3, 0), (2, 1), (0, 0), (0, 1), (3, 1), (2, 2), (2, 0), (1, 2), (3, 2)]	[(3, 0), (2, 1), (0, 0), (0, 1), (3, 1), (2, 2), (2, 3), (0, 2), (1, 1)]	[(3, 0), (2, 1), (0, 0)]	[(0, 1), (3, 1), (2, 2)]	[(2, 0), (1, 2), (3, 2)]	True	7	4	3	0.5	15.0	22.5	163.00059083336964	0	163.00059179170057	1	0.968165208469145	True
1	1	2	left	0	3	right	hard	(4, 4)	3	3	[(1, 0), (2, 3), (2, 1), (3, 3), (0, 0), (2, 2), (3, 2), (1, 2), (1, 3)]	[(1, 0), (2, 3), (2, 1), (3, 3), (0, 0), (2, 2), (0, 1), (3, 1), (2, 0)]	[(1, 0), (2, 3), (2, 1)]	[(3, 3), (0, 0), (2, 2)]	[(3, 2), (1, 2), (1, 3)]	True	7	4	3	0.5	22.5	30.0	170.5006116249133	0	170.5006126249209	1	1.2713002916425469	True
1	1	2	left	0	0	right	easy	(3, 4)	2	3	[(0, 0), (0, 1), (1, 0), (1, 1), (2, 0), (2, 1)]	[(1, 2), (2, 2), (1, 0), (1, 1), (2, 0), (2, 1)]	[(0, 0), (0, 1)]	[(1, 0), (1, 1)]	[(2, 0), (2, 1)]	True	7	4	3	0.5	0.0	7.5	43.00070562493056	0	43.000706624938175	2	0.982422333327122	False
1	1	2	right	1	1	right	easy	(3, 4)	2	3	[(0, 0), (0, 2), (0, 1), (0, 3), (1, 2), (1, 3)]	[(0, 0), (0, 2), (0, 1), (0, 3), (1, 0), (1, 1)]	[(0, 0), (0, 2)]	[(0, 1), (0, 3)]	[(1, 2), (1, 3)]	True	7	4	3	0.5	7.5	15.0	50.500559041742235	0	50.50056004174985	2	1.6273222917225212	True
1	1	2	right	1	2	right	hard	(4, 4)	3	3	[(3, 2), (0, 3), (1, 2), (2, 2), (3, 3), (1, 1), (3, 1), (1, 0), (2, 3)]	[(2, 0), (2, 1), (3, 0), (2, 2), (3, 3), (1, 1), (3, 1), (1, 0), (2, 3)]	[(3, 2), (0, 3), (1, 2)]	[(2, 2), (3, 3), (1, 1)]	[(3, 1), (1, 0), (2, 3)]	True	7	4	3	0.5	15.0	22.5	58.000594791723415	0	58.000595833407715	2	1.9411016249796376	True
1	1	2	left	0	3	right	hard	(4, 4)	3	3	[(0, 2), (3, 3), (0, 3), (0, 1), (1, 2), (3, 2), (1, 1), (1, 3), (2, 2)]	[(0, 0), (2, 1), (1, 0), (0, 1), (1, 2), (3, 2), (1, 1), (1, 3), (2, 2)]	[(0, 2), (3, 3), (0, 3)]	[(0, 1), (1, 2), (3, 2)]	[(1, 1), (1, 3), (2, 2)]	True	7	4	3	0.5	22.5	30.0	65.500593499979	0	65.50059449998662	2	1.654189333436079	False
1	1	2	right	1	0	right	easy	(3, 4)	2	3	[(1, 2), (0, 1), (1, 1), (2, 2), (1, 0), (0, 0)]	[(2, 1), (2, 3), (1, 1), (2, 2), (1, 0), (0, 0)]	[(1, 2), (0, 1)]	[(1, 1), (2, 2)]	[(1, 0), (0, 0)]	True	7	4	3	0.5	0.0	7.5	8.00079612492118	0	8.000797124928795	3	2.1142687500687316	False
1	1	2	left	0	1	right	easy	(3, 4)	2	3	[(1, 3), (1, 0), (1, 1), (0, 0), (2, 1), (2, 0)]	[(1, 3), (1, 0), (2, 2), (0, 3), (2, 1), (2, 0)]	[(1, 3), (1, 0)]	[(1, 1), (0, 0)]	[(2, 1), (2, 0)]	True	7	4	3	0.5	7.5	15.0	15.50066170829814	0	15.50066274998244	0		False
1	1	2	right	1	2	right	hard	(4, 4)	3	3	[(0, 2), (3, 3), (0, 0), (1, 0), (0, 3), (2, 3), (2, 0), (2, 2), (0, 1)]	[(1, 3), (3, 0), (2, 1), (1, 0), (0, 3), (2, 3), (2, 0), (2, 2), (0, 1)]	[(0, 2), (3, 3), (0, 0)]	[(1, 0), (0, 3), (2, 3)]	[(2, 0), (2, 2), (0, 1)]	True	7	4	3	0.5	15.0	22.5	23.000565208378248	0	23.000566291622818	0		False
1	1	2	left	0	3	right	hard	(4, 4)	3	3	[(0, 0), (0, 1), (2, 2), (0, 2), (2, 1), (1, 2), (3, 2), (1, 0), (0, 3)]	[(0, 0), (0, 1), (2, 2), (0, 2), (2, 1), (1, 2), (3, 1), (1, 3), (2, 3)]	[(0, 0), (0, 1), (2, 2)]	[(0, 2), (2, 1), (1, 2)]	[(3, 2), (1, 0), (0, 3)]	True	7	4	3	0.5	22.5	30.0	30.500570291653275	0	30.500571333337575	1	1.7752292916411534	True
1	1	2	right	1	0	right	easy	(3, 4)	2	3	[(1, 2), (0, 1), (1, 1), (2, 2), (1, 0), (0, 0)]	[(2, 1), (2, 3), (1, 1), (2, 2), (1, 0), (0, 0)]	[(1, 2), (0, 1)]	[(1, 1), (2, 2)]	[(1, 0), (0, 0)]	True	7	4	3	0.5	0.0	7.5	8.000869250041433	0	8.000870250049047	2	1.230529708438553	True
1	1	2	left	0	1	right	easy	(3, 4)	2	3	[(1, 3), (1, 0), (1, 1), (0, 0), (2, 1), (2, 0)]	[(1, 3), (1, 0), (2, 2), (0, 3), (2, 1), (2, 0)]	[(1, 3), (1, 0)]	[(1, 1), (0, 0)]	[(2, 1), (2, 0)]	True	7	4	3	0.5	7.5	15.0	15.500629208399914	0	15.500630166614428	1	1.4329895834671331	True
1	1	2	right	1	2	right	hard	(4, 4)	3	3	[(0, 2), (3, 3), (0, 0), (1, 0), (0, 3), (2, 3), (2, 0), (2, 2), (0, 1)]	[(1, 3), (3, 0), (2, 1), (1, 0), (0, 3), (2, 3), (2, 0), (2, 2), (0, 1)]	[(0, 2), (3, 3), (0, 0)]	[(1, 0), (0, 3), (2, 3)]	[(2, 0), (2, 2), (0, 1)]	True	7	4	3	0.5	15.0	22.5	23.0005979166599	0	23.000598916667514	2	0.967498250072822	True
1	1	2	left	0	3	right	hard	(4, 4)	3	3	[(0, 0), (0, 1), (2, 2), (0, 2), (2, 1), (1, 2), (3, 2), (1, 0), (0, 3)]	[(0, 0), (0, 1), (2, 2), (0, 2), (2, 1), (1, 2), (3, 1), (1, 3), (2, 3)]	[(0, 0), (0, 1), (2, 2)]	[(0, 2), (2, 1), (1, 2)]	[(3, 2), (1, 0), (0, 3)]	True	7	4	3	0.5	22.5	30.0	30.50056666659657	0	30.500567625043914	2	1.2575412082951516	False
1	1	2	left	0	0	right	easy	(3, 4)	2	3	[(1, 2), (2, 3), (1, 3), (2, 2), (0, 2), (1, 1)]	[(1, 2), (2, 3), (1, 3), (2, 2), (2, 1), (0, 3)]	[(1, 2), (2, 3)]	[(1, 3), (2, 2)]	[(0, 2), (1, 1)]	True	7	4	3	0.5	0.0	7.5	113.00089266663416	0	113.00089379167184	1	1.2321810416178778	True
1	1	2	left	0	1	right	easy	(3, 4)	2	3	[(2, 1), (1, 0), (1, 1), (2, 0), (1, 2), (0, 0)]	[(2, 1), (1, 0), (1, 1), (2, 0), (0, 1), (2, 2)]	[(2, 1), (1, 0)]	[(1, 1), (2, 0)]	[(1, 2), (0, 0)]	True	7	4	3	0.5	7.5	15.0	120.50058566674124	0	120.50058670830911	1	1.4096090416423976	True
1	1	2	left	0	2	right	hard	(4, 4)	3	3	[(3, 1), (3, 2), (1, 1), (3, 3), (2, 1), (1, 0), (0, 1), (3, 0), (0, 0)]	[(2, 2), (2, 0), (2, 3), (3, 3), (2, 1), (1, 0), (0, 1), (3, 0), (0, 0)]	[(3, 1), (3, 2), (1, 1)]	[(3, 3), (2, 1), (1, 0)]	[(0, 1), (3, 0), (0, 0)]	True	7	4	3	0.5	15.0	22.5	128.00058570830151	0	128.00058670830913	1	1.5003657916095108	True
1	1	2	left	0	3	right	hard	(4, 4)	3	3	[(0, 0), (0, 3), (3, 1), (0, 1), (1, 3), (3, 2), (3, 0), (0, 2), (1, 0)]	[(0, 0), (0, 3), (3, 1), (0, 1), (1, 3), (3, 2), (3, 3), (1, 1), (2, 3)]	[(0, 0), (0, 3), (3, 1)]	[(0, 1), (1, 3), (3, 2)]	[(3, 0), (0, 2), (1, 0)]	True	7	4	3	0.5	22.5	30.0	135.5005821667146	0	135.50058329163585	1	1.805308916606009	True
1	1	2	left	0	0	right	easy	(3, 4)	2	3	[(1, 2), (2, 3), (1, 3), (2, 2), (0, 2), (1, 1)]	[(1, 2), (2, 3), (1, 3), (2, 2), (2, 1), (0, 3)]	[(1, 2), (2, 3)]	[(1, 3), (2, 2)]	[(0, 2), (1, 1)]	True	7	4	3	0.5	0.0	7.5	113.00089174997991	0	113.00089279166424	0		False
1	1	2	left	0	1	right	easy	(3, 4)	2	3	[(2, 1), (1, 0), (1, 1), (2, 0), (1, 2), (0, 0)]	[(2, 1), (1, 0), (1, 1), (2, 0), (0, 1), (2, 2)]	[(2, 1), (1, 0)]	[(1, 1), (2, 0)]	[(1, 2), (0, 0)]	True	7	4	3	0.5	7.5	15.0	120.50059670838527	0	120.50059770839287	0		False
1	1	2	left	0	2	right	hard	(4, 4)	3	3	[(3, 1), (3, 2), (1, 1), (3, 3), (2, 1), (1, 0), (0, 1), (3, 0), (0, 0)]	[(2, 2), (2, 0), (2, 3), (3, 3), (2, 1), (1, 0), (0, 1), (3, 0), (0, 0)]	[(3, 1), (3, 2), (1, 1)]	[(3, 3), (2, 1), (1, 0)]	[(0, 1), (3, 0), (0, 0)]	True	7	4	3	0.5	15.0	22.5	128.0006540833274	0	128.000655083335	0		False
1	1	2	left	0	3	right	hard	(4, 4)	3	3	[(0, 0), (0, 3), (3, 1), (0, 1), (1, 3), (3, 2), (3, 0), (0, 2), (1, 0)]	[(0, 0), (0, 3), (3, 1), (0, 1), (1, 3), (3, 2), (3, 3), (1, 1), (2, 3)]	[(0, 0), (0, 3), (3, 1)]	[(0, 1), (1, 3), (3, 2)]	[(3, 0), (0, 2), (1, 0)]	True	7	4	3	0.5	22.5	30.0	135.50087004166562	0	135.50087104167324	0		False
1	1	2	left	0	0	right	easy	(3, 4)	2	3	[(1, 2), (2, 3), (1, 3), (2, 2), (0, 2), (1, 1)]	[(1, 2), (2, 3), (1, 3), (2, 2), (2, 1), (0, 3)]	[(1, 2), (2, 3)]	[(1, 3), (2, 2)]	[(0, 2), (1, 1)]	True	7	4	3	0.5	0.0	7.5	113.00084504170808	0	113.0008460417157	1	0.752362999948673	True
1	1	2	left	0	1	right	easy	(3, 4)	2	3	[(2, 1), (1, 0), (1, 1), (2, 0), (1, 2), (0, 0)]	[(2, 1), (1, 0), (1, 1), (2, 0), (0, 1), (2, 2)]	[(2, 1), (1, 0)]	[(1, 1), (2, 0)]	[(1, 2), (0, 0)]	True	7	4	3	0.5	7.5	15.0	120.50080866669305	0	120.50080970837736	1	1.3224926249822602	True
1	1	2	left	0	2	right	hard	(4, 4)	3	3	[(3, 1), (3, 2), (1, 1), (3, 3), (2, 1), (1, 0), (0, 1), (3, 0), (0, 0)]	[(2, 2), (2, 0), (2, 3), (3, 3), (2, 1), (1, 0), (0, 1), (3, 0), (0, 0)]	[(3, 1), (3, 2), (1, 1)]	[(3, 3), (2, 1), (1, 0)]	[(0, 1), (3, 0), (0, 0)]	True	7	4	3	0.5	15.0	22.5	128.0006928333314	0	128.0006938748993	2	1.190087000024505	False
1	1	2	left	0	3	right	hard	(4, 4)	3	3	[(0, 0), (0, 3), (3, 1), (0, 1), (1, 3), (3, 2), (3, 0), (0, 2), (1, 0)]	[(0, 0), (0, 3), (3, 1), (0, 1), (1, 3), (3, 2), (3, 3), (1, 1), (2, 3)]	[(0, 0), (0, 3), (3, 1)]	[(0, 1), (1, 3), (3, 2)]	[(3, 0), (0, 2), (1, 0)]	True	7	4	3	0.5	22.5	30.0	135.50073129171506	0	135.50073229172267	1	0.8750964999198914	True
1	4	3	right	1	0	left	easy	(3, 4)	2	3	[(0, 0), (2, 2), (1, 2), (1, 0), (1, 3), (2, 3)]	[(0, 3), (0, 2), (1, 2), (1, 0), (1, 3), (2, 3)]	[(0, 0), (2, 2)]	[(1, 2), (1, 0)]	[(1, 3), (2, 3)]	True	7	4	3	0.5	0.0	7.5	78.00086016673595	0	78.00086116674356	4	1.0100330831483006	False
1	4	3	left	0	1	left	easy	(3, 4)	2	3	[(1, 0), (1, 1), (0, 1), (2, 0), (1, 2), (0, 2)]	[(1, 0), (1, 1), (0, 0), (1, 3), (1, 2), (0, 2)]	[(1, 0), (1, 1)]	[(0, 1), (2, 0)]	[(1, 2), (0, 2)]	True	7	4	3	0.5	7.5	15.0	85.50068724993616	0	85.50068824994378	3	1.8487032916164023	False
1	4	3	left	0	2	left	hard	(4, 4)	3	3	[(0, 0), (0, 3), (0, 2), (1, 2), (0, 1), (1, 0), (2, 2), (1, 1), (2, 0)]	[(3, 0), (3, 2), (2, 1), (1, 2), (0, 1), (1, 0), (2, 2), (1, 1), (2, 0)]	[(0, 0), (0, 3), (0, 2)]	[(1, 2), (0, 1), (1, 0)]	[(2, 2), (1, 1), (2, 0)]	True	7	4	3	0.5	15.0	22.5	93.0006423749728	0	93.00064337498044	3	1.0786760000046345	False
1	4	3	right	1	3	left	hard	(4, 4)	3	3	[(1, 3), (2, 2), (0, 2), (2, 3), (0, 1), (1, 2), (3, 3), (2, 1), (0, 3)]	[(1, 3), (2, 2), (0, 2), (2, 3), (0, 1), (1, 2), (1, 1), (3, 2), (0, 0)]	[(1, 3), (2, 2), (0, 2)]	[(2, 3), (0, 1), (1, 2)]	[(3, 3), (2, 1), (0, 3)]	True	7	4	3	0.5	22.5	30.0	100.5006504167104	0	100.50065141671804	4	1.0164258750155568	False
1	1	2	right	1	0	right	easy	(3, 4)	2	3	[(0, 1), (1, 1), (0, 2), (1, 2), (2, 1), (1, 0)]	[(0, 1), (1, 1), (2, 0), (2, 2), (2, 1), (1, 0)]	[(0, 1), (1, 1)]	[(0, 2), (1, 2)]	[(2, 1), (1, 0)]	True	7	4	3	0.5	0.0	7.5	113.00084691680968	0	113.00084800005423	1	1.27777862502262	False
1	1	2	right	1	1	right	easy	(3, 4)	2	3	[(2, 1), (1, 3), (0, 3), (2, 0), (2, 3), (1, 0)]	[(2, 1), (1, 3), (0, 3), (2, 0), (1, 2), (2, 2)]	[(2, 1), (1, 3)]	[(0, 3), (2, 0)]	[(2, 3), (1, 0)]	True	7	4	3	0.5	7.5	15.0	120.50081329175735	0	120.50081433344168	2	1.2406189584871754	True
1	1	2	left	0	2	right	hard	(4, 4)	3	3	[(0, 1), (1, 3), (2, 1), (0, 2), (0, 0), (2, 2), (0, 3), (3, 2), (3, 1)]	[(0, 1), (1, 3), (2, 1), (2, 3), (3, 3), (2, 0), (0, 3), (3, 2), (3, 1)]	[(0, 1), (1, 3), (2, 1)]	[(0, 2), (0, 0), (2, 2)]	[(0, 3), (3, 2), (3, 1)]	True	7	4	3	0.5	15.0	22.5	128.00063966680318	0	128.0006407083711	2	0.975987583398819	False
1	1	2	right	1	3	right	hard	(4, 4)	3	3	[(1, 3), (3, 3), (3, 0), (1, 2), (2, 3), (3, 2), (3, 1), (2, 2), (2, 0)]	[(1, 1), (0, 2), (2, 1), (1, 2), (2, 3), (3, 2), (3, 1), (2, 2), (2, 0)]	[(1, 3), (3, 3), (3, 0)]	[(1, 2), (2, 3), (3, 2)]	[(3, 1), (2, 2), (2, 0)]	True	7	4	3	0.5	22.5	30.0	135.50068504177034	0	135.5006861250149	1	0.8610785834025592	False
1	4	3	left	0	0	left	easy	(3, 4)	2	3	[(0, 3), (0, 2), (1, 3), (1, 2), (2, 2), (1, 1)]	[(0, 3), (0, 2), (1, 3), (1, 2), (2, 3), (0, 1)]	[(0, 3), (0, 2)]	[(1, 3), (1, 2)]	[(2, 2), (1, 1)]	True	7	4	3	0.5	0.0	7.5	8.00086420844309	0	8.000865208450705	4	1.1122359165456146	True
1	4	3	left	0	1	left	easy	(3, 4)	2	3	[(0, 2), (2, 0), (2, 1), (1, 0), (2, 2), (0, 1)]	[(0, 2), (2, 0), (0, 0), (1, 2), (2, 2), (0, 1)]	[(0, 2), (2, 0)]	[(2, 1), (1, 0)]	[(2, 2), (0, 1)]	True	7	4	3	0.5	7.5	15.0	15.500688541913403	0	15.50068954192102	3	1.5746022500097752	False
1	4	3	left	0	2	left	hard	(4, 4)	3	3	[(0, 1), (3, 3), (0, 3), (0, 0), (1, 3), (1, 1), (2, 1), (3, 2), (0, 2)]	[(0, 1), (3, 3), (0, 3), (0, 0), (1, 3), (1, 1), (2, 3), (1, 2), (1, 0)]	[(0, 1), (3, 3), (0, 3)]	[(0, 0), (1, 3), (1, 1)]	[(2, 1), (3, 2), (0, 2)]	True	7	4	3	0.5	15.0	22.5	23.000757375033572	0	23.0007583333645	3	1.0545095831621438	False
1	4	3	left	0	3	left	hard	(4, 4)	3	3	[(3, 0), (1, 0), (2, 2), (1, 1), (1, 2), (2, 0), (2, 1), (0, 0), (0, 2)]	[(0, 1), (3, 1), (1, 3), (1, 1), (1, 2), (2, 0), (2, 1), (0, 0), (0, 2)]	[(3, 0), (1, 0), (2, 2)]	[(1, 1), (1, 2), (2, 0)]	[(2, 1), (0, 0), (0, 2)]	True	7	4	3	0.5	22.5	30.0	30.50080345850438	0	30.500804416835308	4	1.1768446250353009	True
1	4	3	left	0	0	left	easy	(3, 4)	2	3	[(0, 2), (1, 1), (2, 1), (1, 0), (0, 3), (0, 0)]	[(0, 2), (1, 1), (0, 1), (1, 2), (0, 3), (0, 0)]	[(0, 2), (1, 1)]	[(2, 1), (1, 0)]	[(0, 3), (0, 0)]	True	7	4	3	0.5	0.0	7.5	8.000267708208412	0	8.000268791802227	3	1.5215126250404865	False
1	4	3	left	0	1	left	easy	(3, 4)	2	3	[(2, 1), (2, 0), (1, 1), (2, 2), (1, 0), (1, 2)]	[(2, 1), (2, 0), (1, 1), (2, 2), (2, 3), (0, 1)]	[(2, 1), (2, 0)]	[(1, 1), (2, 2)]	[(1, 0), (1, 2)]	True	7	4	3	0.5	7.5	15.0	15.500040875049308	0	15.500041958177462	4	1.994295124895871	True
1	4	3	right	1	2	left	hard	(4, 4)	3	3	[(2, 3), (0, 1), (3, 3), (3, 2), (2, 2), (0, 2), (1, 2), (1, 1), (1, 3)]	[(3, 1), (0, 3), (2, 1), (3, 2), (2, 2), (0, 2), (1, 2), (1, 1), (1, 3)]	[(2, 3), (0, 1), (3, 3)]	[(3, 2), (2, 2), (0, 2)]	[(1, 2), (1, 1), (1, 3)]	True	7	4	3	0.5	15.0	22.5	23.000038374913856	0	23.00003945827484	3	1.5627342914231122	True
1	4	3	right	1	3	left	hard	(4, 4)	3	3	[(0, 3), (1, 3), (2, 2), (0, 2), (2, 3), (2, 1), (0, 1), (3, 2), (1, 2)]	[(0, 3), (1, 3), (2, 2), (0, 2), (2, 3), (2, 1), (3, 3), (3, 1), (2, 0)]	[(0, 3), (1, 3), (2, 2)]	[(0, 2), (2, 3), (2, 1)]	[(0, 1), (3, 2), (1, 2)]	True	7	4	3	0.5	22.5	30.0	30.50003245822154	0	30.500033541815355	4	2.310740916291252	False
1	4	3	left	0	0	left	easy	(3, 4)	2	3	[(1, 0), (2, 3), (1, 1), (1, 3), (2, 2), (1, 2)]	[(2, 1), (0, 1), (1, 1), (1, 3), (2, 2), (1, 2)]	[(1, 0), (2, 3)]	[(1, 1), (1, 3)]	[(2, 2), (1, 2)]	True	7	4	3	0.5	0.0	7.5	78.00028812489472	0	78.00028908345848	4	1.265819874824956	True
1	4	3	left	0	1	left	easy	(3, 4)	2	3	[(1, 1), (1, 3), (1, 2), (0, 3), (0, 2), (2, 2)]	[(2, 1), (0, 1), (1, 2), (0, 3), (0, 2), (2, 2)]	[(1, 1), (1, 3)]	[(1, 2), (0, 3)]	[(0, 2), (2, 2)]	True	7	4	3	0.5	7.5	15.0	85.50002583349124	0	85.50004333327524	4	1.677032083272934	True
1	4	3	left	0	2	left	hard	(4, 4)	3	3	[(2, 3), (1, 3), (0, 1), (0, 2), (3, 3), (1, 1), (1, 0), (0, 0), (2, 2)]	[(2, 3), (1, 3), (0, 1), (0, 2), (3, 3), (1, 1), (2, 1), (1, 2), (0, 3)]	[(2, 3), (1, 3), (0, 1)]	[(0, 2), (3, 3), (1, 1)]	[(1, 0), (0, 0), (2, 2)]	True	7	4	3	0.5	15.0	22.5	93.00002937484533	0	93.00003862497395	3	0.9875900414772332	False
1	4	3	right	1	3	left	hard	(4, 4)	3	3	[(1, 0), (3, 0), (3, 3), (3, 2), (2, 3), (3, 1), (1, 3), (0, 0), (2, 2)]	[(1, 2), (0, 3), (2, 1), (3, 2), (2, 3), (3, 1), (1, 3), (0, 0), (2, 2)]	[(1, 0), (3, 0), (3, 3)]	[(3, 2), (2, 3), (3, 1)]	[(1, 3), (0, 0), (2, 2)]	True	7	4	3	0.5	22.5	30.0	100.50003212480806	0	100.50004983344115	3	1.4231844167225065	True
13	1	2	right	1	0	right	easy	(3, 4)	2	3	[(2, 2), (0, 3), (2, 3), (1, 2), (1, 1), (2, 1)]	[(1, 3), (1, 0), (2, 3), (1, 2), (1, 1), (2, 1)]	[(2, 2), (0, 3)]	[(2, 3), (1, 2)]	[(1, 1), (2, 1)]	True	7	4	3	0.5	0.0	7.5	43.00029441691004	0	43.00029533333145	1	1.459346208255738	False
13	1	2	right	1	1	right	easy	(3, 4)	2	3	[(1, 0), (1, 2), (1, 1), (2, 2), (0, 1), (0, 0)]	[(2, 3), (2, 1), (1, 1), (2, 2), (0, 1), (0, 0)]	[(1, 0), (1, 2)]	[(1, 1), (2, 2)]	[(0, 1), (0, 0)]	True	7	4	3	0.5	7.5	15.0	50.50006016693078	0	50.50006233341992	1	1.2603627499192953	False
13	1	2	left	0	2	right	hard	(4, 4)	3	3	[(2, 1), (3, 1), (1, 3), (0, 3), (3, 2), (3, 0), (1, 1), (2, 0), (1, 2)]	[(2, 1), (3, 1), (1, 3), (0, 1), (0, 2), (2, 2), (1, 1), (2, 0), (1, 2)]	[(2, 1), (3, 1), (1, 3)]	[(0, 3), (3, 2), (3, 0)]	[(1, 1), (2, 0), (1, 2)]	True	7	4	3	0.5	15.0	22.5	58.00005737505853	0	58.0000585000962	2	1.765425208490342	False
13	1	2	right	1	3	right	hard	(4, 4)	3	3	[(0, 2), (3, 3), (3, 0), (0, 1), (3, 2), (3, 1), (0, 3), (2, 2), (0, 0)]	[(1, 2), (2, 3), (1, 1), (0, 1), (3, 2), (3, 1), (0, 3), (2, 2), (0, 0)]	[(0, 2), (3, 3), (3, 0)]	[(0, 1), (3, 2), (3, 1)]	[(0, 3), (2, 2), (0, 0)]	True	7	4	3	0.5	22.5	30.0	65.50006091687828	0	65.50006200000644	1	1.6225912915542722	False
14	4	3	right	1	0	left	easy	(3, 4)	2	3	[(0, 2), (2, 2), (2, 3), (1, 2), (1, 1), (0, 3)]	[(0, 1), (1, 3), (2, 3), (1, 2), (1, 1), (0, 3)]	[(0, 2), (2, 2)]	[(2, 3), (1, 2)]	[(1, 1), (0, 3)]	True	7	4	3	0.5	0.0	7.5	323.00023450003937	0	323.0002354583703	3	1.6209998335689306	True
14	4	3	left	0	1	left	easy	(3, 4)	2	3	[(0, 0), (0, 3), (0, 1), (0, 2), (1, 0), (1, 2)]	[(0, 0), (0, 3), (0, 1), (0, 2), (1, 3), (1, 1)]	[(0, 0), (0, 3)]	[(0, 1), (0, 2)]	[(1, 0), (1, 2)]	True	7	4	3	0.5	7.5	15.0	330.50003662495874	0	330.5000450417865	3	1.34694404178299	False
14	4	3	right	1	2	left	hard	(4, 4)	3	3	[(3, 2), (1, 1), (2, 3), (1, 0), (0, 1), (3, 1), (3, 0), (0, 2), (2, 2)]	[(2, 0), (1, 2), (2, 1), (1, 0), (0, 1), (3, 1), (3, 0), (0, 2), (2, 2)]	[(3, 2), (1, 1), (2, 3)]	[(1, 0), (0, 1), (3, 1)]	[(3, 0), (0, 2), (2, 2)]	True	7	4	3	0.5	15.0	22.5	338.0000401667785	0	338.0000499582384	3	1.7880449581425637	True
14	4	3	left	0	3	left	hard	(4, 4)	3	3	[(0, 0), (0, 1), (2, 2), (2, 3), (1, 2), (1, 1), (2, 1), (3, 2), (3, 3)]	[(0, 0), (0, 1), (2, 2), (0, 2), (1, 0), (2, 0), (2, 1), (3, 2), (3, 3)]	[(0, 0), (0, 1), (2, 2)]	[(2, 3), (1, 2), (1, 1)]	[(2, 1), (3, 2), (3, 3)]	True	7	4	3	0.5	22.5	30.0	345.5000342500862	0	345.50004466669634	3	1.4558185415808111	False
4	4	3	right	1	0	left	easy	(3, 4)	2	3	[(1, 2), (2, 0), (0, 2), (1, 1), (0, 3), (1, 3)]	[(1, 2), (2, 0), (0, 2), (1, 1), (1, 0), (2, 2)]	[(1, 2), (2, 0)]	[(0, 2), (1, 1)]	[(0, 3), (1, 3)]	True	7	4	3	0.5	0.0	7.5	8.000243041664362	0	8.000243999995291	4	1.2015359580982476	False
4	4	3	right	1	1	left	easy	(3, 4)	2	3	[(1, 3), (2, 0), (0, 3), (1, 0), (0, 0), (2, 1)]	[(1, 3), (2, 0), (0, 3), (1, 0), (0, 2), (1, 2)]	[(1, 3), (2, 0)]	[(0, 3), (1, 0)]	[(0, 0), (2, 1)]	True	7	4	3	0.5	7.5	15.0	15.500048083486035	0	15.500064874999223	4	1.1321428748779	False
4	4	3	left	0	2	left	hard	(4, 4)	3	3	[(0, 1), (0, 2), (3, 3), (0, 3), (3, 2), (1, 2), (3, 1), (0, 0), (1, 3)]	[(3, 0), (2, 2), (1, 1), (0, 3), (3, 2), (1, 2), (3, 1), (0, 0), (1, 3)]	[(0, 1), (0, 2), (3, 3)]	[(0, 3), (3, 2), (1, 2)]	[(3, 1), (0, 0), (1, 3)]	True	7	4	3	0.5	15.0	22.5	23.00004899990745	0	23.00004995847121	3	1.2268737917765975	False
4	4	3	left	0	3	left	hard	(4, 4)	3	3	[(3, 0), (3, 1), (0, 2), (1, 2), (3, 2), (2, 1), (1, 3), (2, 2), (2, 0)]	[(2, 3), (1, 0), (3, 3), (1, 2), (3, 2), (2, 1), (1, 3), (2, 2), (2, 0)]	[(3, 0), (3, 1), (0, 2)]	[(1, 2), (3, 2), (2, 1)]	[(1, 3), (2, 2), (2, 0)]	True	7	4	3	0.5	22.5	30.0	30.500057791825384	0	30.500058833509684	3	1.4599573332816362	False
1	4	3	right	1	0	left	easy	(3, 4)	2	3	[(2, 2), (0, 1), (2, 3), (1, 2), (2, 1), (0, 2)]	[(2, 2), (0, 1), (2, 3), (1, 2), (1, 1), (1, 3)]	[(2, 2), (0, 1)]	[(2, 3), (1, 2)]	[(2, 1), (0, 2)]	True	7	4	3	0.5	0.0	7.5	323.000213000003	868	0.4462980416719802	0		False
1	4	3	right	1	1	left	easy	(3, 4)	2	3	[(0, 3), (2, 1), (1, 3), (2, 0), (1, 2), (2, 3)]	[(2, 2), (1, 1), (1, 3), (2, 0), (1, 2), (2, 3)]	[(0, 3), (2, 1)]	[(1, 3), (2, 0)]	[(1, 2), (2, 3)]	True	7	4	3	0.5	7.5	15.0	330.50003933333574	893	0.2400398333411431	0		False
1	4	3	right	1	2	left	hard	(4, 4)	3	3	[(0, 0), (1, 2), (3, 1), (1, 1), (1, 3), (0, 2), (2, 1), (3, 0), (2, 2)]	[(0, 0), (1, 2), (3, 1), (1, 0), (2, 0), (3, 2), (2, 1), (3, 0), (2, 2)]	[(0, 0), (1, 2), (3, 1)]	[(1, 1), (1, 3), (0, 2)]	[(2, 1), (3, 0), (2, 2)]	True	7	4	3	0.5	15.0	22.5	338.0000390000023	921	0.0377011250020586	0		False
1	4	3	left	0	3	left	hard	(4, 4)	3	3	[(3, 3), (0, 3), (1, 0), (0, 2), (2, 0), (0, 0), (2, 1), (1, 1), (1, 2)]	[(3, 3), (0, 3), (1, 0), (0, 2), (2, 0), (0, 0), (0, 1), (1, 3), (3, 0)]	[(3, 3), (0, 3), (1, 0)]	[(0, 2), (2, 0), (0, 0)]	[(2, 1), (1, 1), (1, 2)]	True	7	4	3	0.5	22.5	30.0	345.5000423749989	950	0.0965241666708607	0		False
1	4	3	right	1	0	left	easy	(3, 4)	2	3	[(2, 2), (0, 1), (2, 3), (1, 2), (2, 1), (0, 2)]	[(2, 2), (0, 1), (2, 3), (1, 2), (1, 1), (1, 3)]	[(2, 2), (0, 1)]	[(2, 3), (1, 2)]	[(2, 1), (0, 2)]	True	7	4	3	0.5	0.0	7.5	323.000263083326	94	44.457555958331795	0		False
1	4	3	right	1	1	left	easy	(3, 4)	2	3	[(0, 3), (2, 1), (1, 3), (2, 0), (1, 2), (2, 3)]	[(2, 2), (1, 1), (1, 3), (2, 0), (1, 2), (2, 3)]	[(0, 3), (2, 1)]	[(1, 3), (2, 0)]	[(1, 2), (2, 3)]	True	7	4	3	0.5	7.5	15.0	330.5000752083288	94	51.957368083334586	0		False
1	4	3	right	1	2	left	hard	(4, 4)	3	3	[(0, 0), (1, 2), (3, 1), (1, 1), (1, 3), (0, 2), (2, 1), (3, 0), (2, 2)]	[(0, 0), (1, 2), (3, 1), (1, 0), (2, 0), (3, 2), (2, 1), (3, 0), (2, 2)]	[(0, 0), (1, 2), (3, 1)]	[(1, 1), (1, 3), (0, 2)]	[(2, 1), (3, 0), (2, 2)]	True	7	4	3	0.5	15.0	22.5	338.0000869999931	94	59.45737987499888	0		False
1	4	3	left	0	3	left	hard	(4, 4)	3	3	[(3, 3), (0, 3), (1, 0), (0, 2), (2, 0), (0, 0), (2, 1), (1, 1), (1, 2)]	[(3, 3), (0, 3), (1, 0), (0, 2), (2, 0), (0, 0), (0, 1), (1, 3), (3, 0)]	[(3, 3), (0, 3), (1, 0)]	[(0, 2), (2, 0), (0, 0)]	[(2, 1), (1, 1), (1, 2)]	True	7	4	3	0.5	22.5	30.0	345.5000736249931	94	66.95736654166103	0		False
1	4	3	right	1	0	left	easy	(3, 4)	2	3	[(2, 2), (0, 1), (2, 3), (1, 2), (2, 1), (0, 2)]	[(2, 2), (0, 1), (2, 3), (1, 2), (1, 1), (1, 3)]	[(2, 2), (0, 1)]	[(2, 3), (1, 2)]	[(2, 1), (0, 2)]	True	7	4	3	0.5	0.0	7.5	323.0003629583298	1	323.000363916668	0		False
1	4	3	right	1	1	left	easy	(3, 4)	2	3	[(0, 3), (2, 1), (1, 3), (2, 0), (1, 2), (2, 3)]	[(2, 2), (1, 1), (1, 3), (2, 0), (1, 2), (2, 3)]	[(0, 3), (2, 1)]	[(1, 3), (2, 0)]	[(1, 2), (2, 3)]	True	7	4	3	0.5	7.5	15.0	330.50003812499926	1	330.5000390833302	0		False
1	4	3	right	1	2	left	hard	(4, 4)	3	3	[(0, 0), (1, 2), (3, 1), (1, 1), (1, 3), (0, 2), (2, 1), (3, 0), (2, 2)]	[(0, 0), (1, 2), (3, 1), (1, 0), (2, 0), (3, 2), (2, 1), (3, 0), (2, 2)]	[(0, 0), (1, 2), (3, 1)]	[(1, 1), (1, 3), (0, 2)]	[(2, 1), (3, 0), (2, 2)]	True	7	4	3	0.5	15.0	22.5	338.0000341249979	1	338.0000350416667	0		False
1	4	3	left	0	3	left	hard	(4, 4)	3	3	[(3, 3), (0, 3), (1, 0), (0, 2), (2, 0), (0, 0), (2, 1), (1, 1), (1, 2)]	[(3, 3), (0, 3), (1, 0), (0, 2), (2, 0), (0, 0), (0, 1), (1, 3), (3, 0)]	[(3, 3), (0, 3), (1, 0)]	[(0, 2), (2, 0), (0, 0)]	[(2, 1), (1, 1), (1, 2)]	True	7	4	3	0.5	22.5	30.0	345.5000395416646	1	345.5000404583261	0		False
1	4	3	right	1	0	left	easy	(3, 4)	2	3	[(2, 2), (0, 1), (2, 3), (1, 2), (2, 1), (0, 2)]	[(2, 2), (0, 1), (2, 3), (1, 2), (1, 1), (1, 3)]	[(2, 2), (0, 1)]	[(2, 3), (1, 2)]	[(2, 1), (0, 2)]	True	7	4	3	0.5	0.0	7.5	323.0002052916607	434	0.5968684166728053	0		False
1	4	3	right	1	1	left	easy	(3, 4)	2	3	[(0, 3), (2, 1), (1, 3), (2, 0), (1, 2), (2, 3)]	[(2, 2), (1, 1), (1, 3), (2, 0), (1, 2), (2, 3)]	[(0, 3), (2, 1)]	[(1, 3), (2, 0)]	[(1, 2), (2, 3)]	True	7	4	3	0.5	7.5	15.0	330.5000200416616	443	1.0248060833400814	0		False
1	4	3	right	1	2	left	hard	(4, 4)	3	3	[(0, 0), (1, 2), (3, 1), (1, 1), (1, 3), (0, 2), (2, 1), (3, 0), (2, 2)]	[(0, 0), (1, 2), (3, 1), (1, 0), (2, 0), (3, 2), (2, 1), (3, 0), (2, 2)]	[(0, 0), (1, 2), (3, 1)]	[(1, 1), (1, 3), (0, 2)]	[(2, 1), (3, 0), (2, 2)]	True	7	4	3	0.5	15.0	22.5	338.00002870833123	449	0.1389006250028615	0		False
1	4	3	left	0	3	left	hard	(4, 4)	3	3	[(3, 3), (0, 3), (1, 0), (0, 2), (2, 0), (0, 0), (2, 1), (1, 1), (1, 2)]	[(3, 3), (0, 3), (1, 0), (0, 2), (2, 0), (0, 0), (0, 1), (1, 3), (3, 0)]	[(3, 3), (0, 3), (1, 0)]	[(0, 2), (2, 0), (0, 0)]	[(2, 1), (1, 1), (1, 2)]	True	7	4	3	0.5	22.5	30.0	345.5000313749988	458	0.3210883749998174	0		False
1	4	3	right	1	0	left	easy	(3, 4)	2	3	[(2, 2), (0, 1), (2, 3), (1, 2), (2, 1), (0, 2)]	[(2, 2), (0, 1), (2, 3), (1, 2), (1, 1), (1, 3)]	[(2, 2), (0, 1)]	[(2, 3), (1, 2)]	[(2, 1), (0, 2)]	True	7	4	3	0.5	0.0	7.5	323.0002195416673	332	0.4100714166634134	4	1.172168999997666	False
1	4	3	right	1	1	left	easy	(3, 4)	2	3	[(0, 3), (2, 1), (1, 3), (2, 0), (1, 2), (2, 3)]	[(2, 2), (1, 1), (1, 3), (2, 0), (1, 2), (2, 3)]	[(0, 3), (2, 1)]	[(1, 3), (2, 0)]	[(1, 2), (2, 3)]	True	7	4	3	0.5	7.5	15.0	330.5000432500019	341	0.0699866666691377	4	1.7254942916624714	False
1	4	3	right	1	2	left	hard	(4, 4)	3	3	[(0, 0), (1, 2), (3, 1), (1, 1), (1, 3), (0, 2), (2, 1), (3, 0), (2, 2)]	[(0, 0), (1, 2), (3, 1), (1, 0), (2, 0), (3, 2), (2, 1), (3, 0), (2, 2)]	[(0, 0), (1, 2), (3, 1)]	[(1, 1), (1, 3), (0, 2)]	[(2, 1), (3, 0), (2, 2)]	True	7	4	3	0.5	15.0	22.5	338.0000447916682	349	0.0739950416755164	4	1.9534175416702055	False
1	4	3	left	0	3	left	hard	(4, 4)	3	3	[(3, 3), (0, 3), (1, 0), (0, 2), (2, 0), (0, 0), (2, 1), (1, 1), (1, 2)]	[(3, 3), (0, 3), (1, 0), (0, 2), (2, 0), (0, 0), (0, 1), (1, 3), (3, 0)]	[(3, 3), (0, 3), (1, 0)]	[(0, 2), (2, 0), (0, 0)]	[(2, 1), (1, 1), (1, 2)]	True	7	4	3	0.5	22.5	30.0	345.50004316667037	357	0.5898100416670786	3	0.6585618749959394	False
2	4	3	right	1	0	left	easy	(3, 4)	2	3	[(2, 2), (0, 1), (2, 3), (1, 2), (2, 1), (0, 2)]	[(2, 2), (0, 1), (2, 3), (1, 2), (1, 1), (1, 3)]	[(2, 2), (0, 1)]	[(2, 3), (1, 2)]	[(2, 1), (0, 2)]	True	7	4	3	0.5	0.0	7.5	358.0001742083259	274	94.32921779166644	0		False
2	4	3	right	1	1	left	easy	(3, 4)	2	3	[(0, 3), (2, 1), (1, 3), (2, 0), (1, 2), (2, 3)]	[(2, 2), (1, 1), (1, 3), (2, 0), (1, 2), (2, 3)]	[(0, 3), (2, 1)]	[(1, 3), (2, 0)]	[(1, 2), (2, 3)]	True	7	4	3	0.5	7.5	15.0	365.5000274999984	274	101.82907087499916	0		False
2	4	3	right	1	2	left	hard	(4, 4)	3	3	[(0, 0), (1, 2), (3, 1), (1, 1), (1, 3), (0, 2), (2, 1), (3, 0), (2, 2)]	[(0, 0), (1, 2), (3, 1), (1, 0), (2, 0), (3, 2), (2, 1), (3, 0), (2, 2)]	[(0, 0), (1, 2), (3, 1)]	[(1, 1), (1, 3), (0, 2)]	[(2, 1), (3, 0), (2, 2)]	True	7	4	3	0.5	15.0	22.5	373.0000195833272	274	109.329062958328	0		False
2	4	3	left	0	3	left	hard	(4, 4)	3	3	[(3, 3), (0, 3), (1, 0), (0, 2), (2, 0), (0, 0), (2, 1), (1, 1), (1, 2)]	[(3, 3), (0, 3), (1, 0), (0, 2), (2, 0), (0, 0), (0, 1), (1, 3), (3, 0)]	[(3, 3), (0, 3), (1, 0)]	[(0, 2), (2, 0), (0, 0)]	[(2, 1), (1, 1), (1, 2)]	True	7	4	3	0.5	22.5	30.0	380.5000249583245	274	116.82906833332528	0		False
1	1	2	left	0	0	right	easy	(3, 4)	2	3	[(2, 1), (0, 0), (0, 1), (2, 2), (1, 2), (0, 2)]	[(1, 1), (2, 3), (0, 1), (2, 2), (1, 2), (0, 2)]	[(2, 1), (0, 0)]	[(0, 1), (2, 2)]	[(1, 2), (0, 2)]	True	7	4	3	0.5	0.0	7.5	393.00022208333394	421	0.8508327083400218	1	0.8266104583308334	True
1	1	2	left	0	1	right	easy	(3, 4)	2	3	[(0, 2), (0, 3), (1, 2), (0, 1), (1, 1), (1, 3)]	[(0, 2), (0, 3), (1, 2), (0, 1), (2, 2), (0, 0)]	[(0, 2), (0, 3)]	[(1, 2), (0, 1)]	[(1, 1), (1, 3)]	True	7	4	3	0.5	7.5	15.0	400.5000356249948	422	5.590760166669497	2	1.4600237499980722	False
1	1	2	right	1	2	right	hard	(4, 4)	3	3	[(3, 2), (1, 1), (2, 2), (2, 1), (3, 1), (2, 3), (3, 3), (0, 1), (2, 0)]	[(3, 2), (1, 1), (2, 2), (2, 1), (3, 1), (2, 3), (1, 2), (1, 0), (3, 0)]	[(3, 2), (1, 1), (2, 2)]	[(2, 1), (3, 1), (2, 3)]	[(3, 3), (0, 1), (2, 0)]	True	7	4	3	0.5	15.0	22.5	408.00003558333265	422	13.09076100000675	2	2.780855375000101	True
1	1	2	left	0	3	right	hard	(4, 4)	3	3	[(3, 2), (0, 1), (3, 1), (0, 0), (2, 2), (1, 1), (1, 2), (3, 0), (2, 3)]	[(3, 2), (0, 1), (3, 1), (0, 0), (2, 2), (1, 1), (3, 3), (2, 1), (0, 2)]	[(3, 2), (0, 1), (3, 1)]	[(0, 0), (2, 2), (1, 1)]	[(1, 2), (3, 0), (2, 3)]	True	7	4	3	0.5	22.5	30.0	415.5000349166585	422	20.590759583341423	2	2.1612413750044652	False
1	1	2	left	0	0	right	easy	(3, 4)	2	3	[(2, 1), (0, 0), (0, 1), (2, 2), (1, 2), (0, 2)]	[(1, 1), (2, 3), (0, 1), (2, 2), (1, 2), (0, 2)]	[(2, 1), (0, 0)]	[(0, 1), (2, 2)]	[(1, 2), (0, 2)]	True	7	4	3	0.5	0.0	7.5	323.0002173749963	351	0.8832452083370299	0		False
1	1	2	left	0	1	right	easy	(3, 4)	2	3	[(0, 2), (0, 3), (1, 2), (0, 1), (1, 1), (1, 3)]	[(0, 2), (0, 3), (1, 2), (0, 1), (2, 2), (0, 0)]	[(0, 2), (0, 3)]	[(1, 2), (0, 1)]	[(1, 1), (1, 3)]	True	7	4	3	0.5	7.5	15.0	330.50002945832966	358	0.6631472083317931	0		False
1	1	2	right	1	2	right	hard	(4, 4)	3	3	[(3, 2), (1, 1), (2, 2), (2, 1), (3, 1), (2, 3), (3, 3), (0, 1), (2, 0)]	[(3, 2), (1, 1), (2, 2), (2, 1), (3, 1), (2, 3), (1, 2), (1, 0), (3, 0)]	[(3, 2), (1, 1), (2, 2)]	[(2, 1), (3, 1), (2, 3)]	[(3, 3), (0, 1), (2, 0)]	True	7	4	3	0.5	15.0	22.5	338.00003574999573	365	0.0669770416716346	2	0.5566379999945639	True
1	1	2	left	0	3	right	hard	(4, 4)	3	3	[(3, 2), (0, 1), (3, 1), (0, 0), (2, 2), (1, 1), (1, 2), (3, 0), (2, 3)]	[(3, 2), (0, 1), (3, 1), (0, 0), (2, 2), (1, 1), (3, 3), (2, 1), (0, 2)]	[(3, 2), (0, 1), (3, 1)]	[(0, 0), (2, 2), (1, 1)]	[(1, 2), (3, 0), (2, 3)]	True	7	4	3	0.5	22.5	30.0	345.5000404999955	369	0.7832279166614171	2	2.311528124999313	False
1	1	2	left	0	0	right	easy	(3, 4)	2	3	[(2, 2), (2, 3), (1, 2), (2, 1), (0, 2), (2, 0)]	[(2, 2), (2, 3), (1, 2), (2, 1), (1, 1), (1, 3)]	[(2, 2), (2, 3)]	[(1, 2), (2, 1)]	[(0, 2), (2, 0)]	True	7	4	3	0.5	0.0	7.5	393.0002218333393	521	0.2418336666596587	1	1.562104000004183	True
1	1	2	left	0	1	right	easy	(3, 4)	2	3	[(2, 1), (0, 3), (0, 2), (2, 0), (1, 3), (2, 2)]	[(2, 1), (0, 3), (0, 2), (2, 0), (1, 2), (1, 0)]	[(2, 1), (0, 3)]	[(0, 2), (2, 0)]	[(1, 3), (2, 2)]	True	7	4	3	0.5	7.5	15.0	400.500035875004	532	0.1979097083240049	2	2.1310890416716575	False
1	1	2	left	0	2	right	hard	(4, 4)	3	3	[(2, 1), (0, 3), (2, 2), (0, 2), (1, 2), (3, 1), (3, 0), (0, 1), (1, 1)]	[(2, 1), (0, 3), (2, 2), (0, 2), (1, 2), (3, 1), (1, 3), (3, 2), (2, 3)]	[(2, 1), (0, 3), (2, 2)]	[(0, 2), (1, 2), (3, 1)]	[(3, 0), (0, 1), (1, 1)]	True	7	4	3	0.5	15.0	22.5	408.000029333336	542	0.7378168333307258	1	1.2787995416729243	True
1	1	2	right	1	3	right	hard	(4, 4)	3	3	[(0, 3), (1, 1), (0, 2), (2, 1), (0, 1), (1, 0), (0, 0), (1, 2), (2, 0)]	[(3, 1), (3, 0), (2, 2), (2, 1), (0, 1), (1, 0), (0, 0), (1, 2), (2, 0)]	[(0, 3), (1, 1), (0, 2)]	[(2, 1), (0, 1), (1, 0)]	[(0, 0), (1, 2), (2, 0)]	True	7	4	3	0.5	22.5	30.0	415.5000345416629	553	0.5660328333397047	2	0.8958667916595004	True
1	4	3	left	0	0	left	easy	(3, 4)	2	3	[(2, 1), (0, 2), (1, 1), (2, 0), (1, 0), (2, 2)]	[(2, 1), (0, 2), (1, 2), (0, 0), (1, 0), (2, 2)]	[(2, 1), (0, 2)]	[(1, 1), (2, 0)]	[(1, 0), (2, 2)]	True	7	4	3	0.5	0.0	7.5	288.00023387499823	366	0.5544050833341316	4	0.9834312916718772	True
1	4	3	right	1	1	left	easy	(3, 4)	2	3	[(2, 3), (0, 3), (0, 2), (1, 3), (0, 1), (1, 2)]	[(1, 1), (0, 0), (0, 2), (1, 3), (0, 1), (1, 2)]	[(2, 3), (0, 3)]	[(0, 2), (1, 3)]	[(0, 1), (1, 2)]	True	7	4	3	0.5	7.5	15.0	295.50006449999637	377	0.1964669166627572	3	1.421519958326826	True
1	4	3	left	0	2	left	hard	(4, 4)	3	3	[(1, 3), (3, 0), (2, 3), (3, 3), (2, 2), (1, 2), (3, 2), (0, 2), (2, 0)]	[(1, 0), (2, 1), (0, 3), (3, 3), (2, 2), (1, 2), (3, 2), (0, 2), (2, 0)]	[(1, 3), (3, 0), (2, 3)]	[(3, 3), (2, 2), (1, 2)]	[(3, 2), (0, 2), (2, 0)]	True	7	4	3	0.5	15.0	22.5	303.00006745833525	387	0.5293742499998189	3	2.004040208332299	False
1	4	3	right	1	3	left	hard	(4, 4)	3	3	[(3, 1), (3, 3), (1, 0), (3, 0), (3, 2), (0, 0), (1, 1), (2, 0), (0, 1)]	[(1, 2), (2, 1), (2, 2), (3, 0), (3, 2), (0, 0), (1, 1), (2, 0), (0, 1)]	[(3, 1), (3, 3), (1, 0)]	[(3, 0), (3, 2), (0, 0)]	[(1, 1), (2, 0), (0, 1)]	True	7	4	3	0.5	22.5	30.0	310.5000559166656	397	0.6434832083396032	3	1.1657591666662483	True
1	4	3	left	0	0	left	easy	(3, 4)	2	3	[(2, 2), (1, 0), (0, 0), (2, 0), (1, 2), (2, 1)]	[(0, 1), (1, 1), (0, 0), (2, 0), (1, 2), (2, 1)]	[(2, 2), (1, 0)]	[(0, 0), (2, 0)]	[(1, 2), (2, 1)]	True	7	4	3	0.5	0.0	7.5	218.0002206249992	473	0.3799114583380287	4	1.9354629583249336	True
1	4	3	right	1	1	left	easy	(3, 4)	2	3	[(2, 0), (2, 2), (2, 1), (1, 2), (1, 3), (0, 2)]	[(1, 1), (2, 3), (2, 1), (1, 2), (1, 3), (0, 2)]	[(2, 0), (2, 2)]	[(2, 1), (1, 2)]	[(1, 3), (0, 2)]	True	7	4	3	0.5	7.5	15.0	225.50005316666648	492	0.2552584583318094	3	1.198547874999349	True
1	4	3	left	0	2	left	hard	(4, 4)	3	3	[(0, 1), (1, 0), (2, 0), (3, 0), (0, 0), (0, 2), (3, 1), (0, 3), (1, 2)]	[(0, 1), (1, 0), (2, 0), (1, 3), (2, 1), (1, 1), (3, 1), (0, 3), (1, 2)]	[(0, 1), (1, 0), (2, 0)]	[(3, 0), (0, 0), (0, 2)]	[(3, 1), (0, 3), (1, 2)]	True	7	4	3	0.5	15.0	22.5	233.00005012499605	510	0.1790385416607023	4	1.2997692916615051	True
1	4	3	left	0	3	left	hard	(4, 4)	3	3	[(3, 3), (3, 0), (0, 1), (0, 2), (1, 1), (3, 1), (3, 2), (2, 0), (0, 0)]	[(3, 3), (3, 0), (0, 1), (2, 3), (1, 0), (2, 2), (3, 2), (2, 0), (0, 0)]	[(3, 3), (3, 0), (0, 1)]	[(0, 2), (1, 1), (3, 1)]	[(3, 2), (2, 0), (0, 0)]	True	7	4	3	0.5	22.5	30.0	240.50005395832704	528	0.0863352083324571	4	1.6834171666632756	True
2	4	3	left	0	0	left	easy	(3, 4)	2	3	[(2, 1), (0, 2), (1, 1), (2, 0), (1, 0), (2, 2)]	[(2, 1), (0, 2), (1, 2), (0, 0), (1, 0), (2, 2)]	[(2, 1), (0, 2)]	[(1, 1), (2, 0)]	[(1, 0), (2, 2)]	True	7	4	3	0.5	0.0	7.5	253.0002106250031	412	0.4482426666727406	4	1.143870791674999	True
2	4	3	right	1	1	left	easy	(3, 4)	2	3	[(2, 3), (0, 3), (0, 2), (1, 3), (0, 1), (1, 2)]	[(1, 1), (0, 0), (0, 2), (1, 3), (0, 1), (1, 2)]	[(2, 3), (0, 3)]	[(0, 2), (1, 3)]	[(0, 1), (1, 2)]	True	7	4	3	0.5	7.5	15.0	260.5000359583355	425	0.5794347083356115	3	0.8335865833360003	True
2	4	3	left	0	2	left	hard	(4, 4)	3	3	[(1, 3), (3, 0), (2, 3), (3, 3), (2, 2), (1, 2), (3, 2), (0, 2), (2, 0)]	[(1, 0), (2, 1), (0, 3), (3, 3), (2, 2), (1, 2), (3, 2), (0, 2), (2, 0)]	[(1, 3), (3, 0), (2, 3)]	[(3, 3), (2, 2), (1, 2)]	[(3, 2), (0, 2), (2, 0)]	True	7	4	3	0.5	15.0	22.5	268.00003512499825	437	0.4606240833381889	3	1.5140750000064145	False
2	4	3	right	1	3	left	hard	(4, 4)	3	3	[(3, 1), (3, 3), (1, 0), (3, 0), (3, 2), (0, 0), (1, 1), (2, 0), (0, 1)]	[(1, 2), (2, 1), (2, 2), (3, 0), (3, 2), (0, 0), (1, 1), (2, 0), (0, 1)]	[(3, 1), (3, 3), (1, 0)]	[(3, 0), (3, 2), (0, 0)]	[(1, 1), (2, 0), (0, 1)]	True	7	4	3	0.5	22.5	30.0	275.5000396666728	449	0.6516512500020326	4	0.956638749994454	False
1	4	3	left	0	0	left	easy	(3, 4)	2	3	[(2, 2), (1, 0), (0, 0), (2, 0), (1, 2), (2, 1)]	[(0, 1), (1, 1), (0, 0), (2, 0), (1, 2), (2, 1)]	[(2, 2), (1, 0)]	[(0, 0), (2, 0)]	[(1, 2), (2, 1)]	True	7	4	3	0.5	0.0	7.5	323.0002247916709	694	0.1995943333313334	4	1.2905441666589468	True
1	4	3	right	1	1	left	easy	(3, 4)	2	3	[(2, 0), (2, 2), (2, 1), (1, 2), (1, 3), (0, 2)]	[(1, 1), (2, 3), (2, 1), (1, 2), (1, 3), (0, 2)]	[(2, 0), (2, 2)]	[(2, 1), (1, 2)]	[(1, 3), (0, 2)]	True	7	4	3	0.5	7.5	15.0	330.50005066666927	711	0.2156296250032028	3	0.8478665000002366	True
1	4	3	left	0	2	left	hard	(4, 4)	3	3	[(0, 1), (1, 0), (2, 0), (3, 0), (0, 0), (0, 2), (3, 1), (0, 3), (1, 2)]	[(0, 1), (1, 0), (2, 0), (1, 3), (2, 1), (1, 1), (3, 1), (0, 3), (1, 2)]	[(0, 1), (1, 0), (2, 0)]	[(3, 0), (0, 0), (0, 2)]	[(3, 1), (0, 3), (1, 2)]	True	7	4	3	0.5	15.0	22.5	338.00004341667227	730	0.0988809999980731	4	1.0154960833315272	True
1	4	3	left	0	3	left	hard	(4, 4)	3	3	[(3, 3), (3, 0), (0, 1), (0, 2), (1, 1), (3, 1), (3, 2), (2, 0), (0, 0)]	[(3, 3), (3, 0), (0, 1), (2, 3), (1, 0), (2, 2), (3, 2), (2, 0), (0, 0)]	[(3, 3), (3, 0), (0, 1)]	[(0, 2), (1, 1), (3, 1)]	[(3, 2), (2, 0), (0, 0)]	True	7	4	3	0.5	22.5	30.0	345.500052958334	747	0.2512327083240961	4	0.990931708336575	True
1	1	2	left	0	0	right	easy	(3, 4)	2	3	[(0, 2), (1, 2), (1, 1), (1, 3), (2, 3), (2, 2)]	[(0, 2), (1, 2), (1, 1), (1, 3), (0, 1), (0, 3)]	[(0, 2), (1, 2)]	[(1, 1), (1, 3)]	[(2, 3), (2, 2)]	True	7	4	3	0.5	0.0	7.5	43.00023125000007	128	0.0135821250005392	1	1.0557527916607796	True
1	1	2	left	0	1	right	easy	(3, 4)	2	3	[(0, 3), (1, 3), (2, 3), (1, 2), (2, 2), (0, 2)]	[(2, 1), (1, 1), (2, 3), (1, 2), (2, 2), (0, 2)]	[(0, 3), (1, 3)]	[(2, 3), (1, 2)]	[(2, 2), (0, 2)]	True	7	4	3	0.5	7.5	15.0	50.500024916669645	145	0.315798708332295	1	1.107110291661229	True
1	1	2	right	1	2	right	hard	(4, 4)	3	3	[(0, 1), (0, 0), (1, 1), (1, 0), (2, 1), (1, 2), (2, 2), (2, 0), (0, 2)]	[(1, 3), (3, 2), (2, 3), (1, 0), (2, 1), (1, 2), (2, 2), (2, 0), (0, 2)]	[(0, 1), (0, 0), (1, 1)]	[(1, 0), (2, 1), (1, 2)]	[(2, 2), (2, 0), (0, 2)]	True	7	4	3	0.5	15.0	22.5	58.000022666667064	163	0.350205916663981	2	1.47146854166931	True
1	1	2	left	0	3	right	hard	(4, 4)	3	3	[(2, 2), (1, 2), (1, 0), (2, 1), (2, 0), (3, 2), (1, 1), (3, 3), (3, 1)]	[(2, 2), (1, 2), (1, 0), (2, 1), (2, 0), (3, 2), (1, 3), (3, 0), (0, 2)]	[(2, 2), (1, 2), (1, 0)]	[(2, 1), (2, 0), (3, 2)]	[(1, 1), (3, 3), (3, 1)]	True	7	4	3	0.5	22.5	30.0	65.50003124999785	182	0.3191243749970454	1	1.1107681249995949	True
2	1	2	right	1	0	right	easy	(3, 4)	2	3	[(0, 2), (2, 3), (0, 3), (1, 2), (2, 2), (1, 1)]	[(1, 0), (1, 3), (0, 3), (1, 2), (2, 2), (1, 1)]	[(0, 2), (2, 3)]	[(0, 3), (1, 2)]	[(2, 2), (1, 1)]	True	7	4	3	0.5	0.0	7.5	113.00020095833317	191	0.1122554166722693	1	1.636326125000778	False
2	1	2	right	1	1	right	easy	(3, 4)	2	3	[(1, 1), (0, 3), (0, 1), (0, 2), (1, 3), (1, 0)]	[(1, 1), (0, 3), (0, 1), (0, 2), (1, 2), (2, 1)]	[(1, 1), (0, 3)]	[(0, 1), (0, 2)]	[(1, 3), (1, 0)]	True	7	4	3	0.5	7.5	15.0	120.5000227499986	202	0.4510795416645123	2	1.358668624998245	True
2	1	2	left	0	2	right	hard	(4, 4)	3	3	[(1, 2), (2, 2), (2, 1), (1, 1), (0, 2), (3, 1), (0, 1), (3, 2), (1, 3)]	[(1, 2), (2, 2), (2, 1), (1, 1), (0, 2), (3, 1), (3, 0), (1, 0), (0, 3)]	[(1, 2), (2, 2), (2, 1)]	[(1, 1), (0, 2), (3, 1)]	[(0, 1), (3, 2), (1, 3)]	True	7	4	3	0.5	15.0	22.5	128.0000268750009	215	0.106769666665059	2	1.2548784166647238	False
2	1	2	right	1	3	right	hard	(4, 4)	3	3	[(3, 0), (2, 1), (2, 3), (3, 3), (1, 1), (2, 0), (0, 1), (1, 0), (1, 3)]	[(3, 0), (2, 1), (2, 3), (3, 3), (1, 1), (2, 0), (3, 1), (3, 2), (2, 2)]	[(3, 0), (2, 1), (2, 3)]	[(3, 3), (1, 1), (2, 0)]	[(0, 1), (1, 0), (1, 3)]	True	7	4	3	0.5	22.5	30.0	135.50003224999818	226	0.4697148333361838	1	1.4936405416738123	False
3	1	2	left	0	0	right	easy	(3, 4)	2	3	[(2, 1), (0, 2), (1, 2), (2, 0), (1, 1), (1, 0)]	[(2, 1), (0, 2), (0, 1), (0, 3), (1, 1), (1, 0)]	[(2, 1), (0, 2)]	[(1, 2), (2, 0)]	[(1, 1), (1, 0)]	True	7	4	3	0.5	0.0	7.5	428.0002065000008	727	0.4632065833357046	1	1.4413942083265283	True
3	1	2	right	1	1	right	easy	(3, 4)	2	3	[(1, 1), (1, 3), (0, 1), (2, 3), (2, 2), (2, 1)]	[(1, 1), (1, 3), (1, 2), (0, 3), (2, 2), (2, 1)]	[(1, 1), (1, 3)]	[(0, 1), (2, 3)]	[(2, 2), (2, 1)]	True	7	4	3	0.5	7.5	15.0	435.5000355416632	739	0.439179041677562	2	1.6760191666617177	True
3	1	2	left	0	2	right	hard	(4, 4)	3	3	[(0, 1), (2, 3), (3, 2), (1, 1), (0, 0), (3, 1), (1, 3), (3, 3), (1, 2)]	[(0, 1), (2, 3), (3, 2), (0, 3), (2, 2), (0, 2), (1, 3), (3, 3), (1, 2)]	[(0, 1), (2, 3), (3, 2)]	[(1, 1), (0, 0), (3, 1)]	[(1, 3), (3, 3), (1, 2)]	True	7	4	3	0.5	15.0	22.5	443.0000329999966	751	0.1475587916647782	2	1.9648105833257432	False
3	1	2	right	1	3	right	hard	(4, 4)	3	3	[(2, 3), (2, 0), (3, 1), (3, 0), (2, 1), (1, 3), (0, 3), (3, 2), (1, 0)]	[(2, 3), (2, 0), (3, 1), (3, 0), (2, 1), (1, 3), (2, 2), (3, 3), (1, 2)]	[(2, 3), (2, 0), (3, 1)]	[(3, 0), (2, 1), (1, 3)]	[(0, 3), (3, 2), (1, 0)]	True	7	4	3	0.5	22.5	30.0	450.50004370832903	760	2.004573624995828	2	1.939632375004294	True
4	1	2	left	0	0	right	easy	(3, 4)	2	3	[(0, 2), (1, 2), (1, 1), (1, 3), (2, 3), (2, 2)]	[(0, 2), (1, 2), (1, 1), (1, 3), (0, 1), (0, 3)]	[(0, 2), (1, 2)]	[(1, 1), (1, 3)]	[(2, 3), (2, 2)]	True	7	4	3	0.5	0.0	7.5	323.00020299999596	733	0.0041957916619139	1	1.3735533750004834	True
4	1	2	left	0	1	right	easy	(3, 4)	2	3	[(0, 3), (1, 3), (2, 3), (1, 2), (2, 2), (0, 2)]	[(2, 1), (1, 1), (2, 3), (1, 2), (2, 2), (0, 2)]	[(0, 3), (1, 3)]	[(2, 3), (1, 2)]	[(2, 2), (0, 2)]	True	7	4	3	0.5	7.5	15.0	330.5000213749954	754	0.2022500416715047	1	0.95983145833452	True
4	1	2	right	1	2	right	hard	(4, 4)	3	3	[(0, 1), (0, 0), (1, 1), (1, 0), (2, 1), (1, 2), (2, 2), (2, 0), (0, 2)]	[(1, 3), (3, 2), (2, 3), (1, 0), (2, 1), (1, 2), (2, 2), (2, 0), (0, 2)]	[(0, 1), (0, 0), (1, 1)]	[(1, 0), (2, 1), (1, 2)]	[(2, 2), (2, 0), (0, 2)]	True	7	4	3	0.5	15.0	22.5	338.0000291666729	772	0.271581041663012	2	1.1268473333329894	True
4	1	2	left	0	3	right	hard	(4, 4)	3	3	[(2, 2), (1, 2), (1, 0), (2, 1), (2, 0), (3, 2), (1, 1), (3, 3), (3, 1)]	[(2, 2), (1, 2), (1, 0), (2, 1), (2, 0), (3, 2), (1, 3), (3, 0), (0, 2)]	[(2, 2), (1, 2), (1, 0)]	[(2, 1), (2, 0), (3, 2)]	[(1, 1), (3, 3), (3, 1)]	True	7	4	3	0.5	22.5	30.0	345.50002220833267	790	0.3496341249992838	1	1.5278213749988936	True
1	1	2	right	1	0	right	easy	(3, 4)	2	3	[(0, 2), (2, 3), (0, 3), (1, 2), (2, 2), (1, 1)]	[(1, 0), (1, 3), (0, 3), (1, 2), (2, 2), (1, 1)]	[(0, 2), (2, 3)]	[(0, 3), (1, 2)]	[(2, 2), (1, 1)]	True	7	4	3	0.5	0.0	7.5	288.00020408332784	522	3.0438712916657096	2	1.4671090000047116	True
1	1	2	right	1	1	right	easy	(3, 4)	2	3	[(1, 1), (0, 3), (0, 1), (0, 2), (1, 3), (1, 0)]	[(1, 1), (0, 3), (0, 1), (0, 2), (1, 2), (2, 1)]	[(1, 1), (0, 3)]	[(0, 1), (0, 2)]	[(1, 3), (1, 0)]	True	7	4	3	0.5	7.5	15.0	295.5000279583328	529	0.2537366666729213	2	1.6748680000018794	True
1	1	2	left	0	2	right	hard	(4, 4)	3	3	[(1, 2), (2, 2), (2, 1), (1, 1), (0, 2), (3, 1), (0, 1), (3, 2), (1, 3)]	[(1, 2), (2, 2), (2, 1), (1, 1), (0, 2), (3, 1), (3, 0), (1, 0), (0, 3)]	[(1, 2), (2, 2), (2, 1)]	[(1, 1), (0, 2), (3, 1)]	[(0, 1), (3, 2), (1, 3)]	True	7	4	3	0.5	15.0	22.5	303.0000238749999	539	0.6102639583259588	2	1.4796672916636453	False
1	1	2	right	1	3	right	hard	(4, 4)	3	3	[(3, 0), (2, 1), (2, 3), (3, 3), (1, 1), (2, 0), (0, 1), (1, 0), (1, 3)]	[(3, 0), (2, 1), (2, 3), (3, 3), (1, 1), (2, 0), (3, 1), (3, 2), (2, 2)]	[(3, 0), (2, 1), (2, 3)]	[(3, 3), (1, 1), (2, 0)]	[(0, 1), (1, 0), (1, 3)]	True	7	4	3	0.5	22.5	30.0	310.5000284166672	552	0.3331124166579684	2	1.004782416668604	True
2	1	2	left	0	0	right	easy	(3, 4)	2	3	[(2, 1), (0, 2), (1, 2), (2, 0), (1, 1), (1, 0)]	[(2, 1), (0, 2), (0, 1), (0, 3), (1, 1), (1, 0)]	[(2, 1), (0, 2)]	[(1, 2), (2, 0)]	[(1, 1), (1, 0)]	True	7	4	3	0.5	0.0	7.5	8.000208791672776	14	0.05630412499886	0		False
2	1	2	right	1	1	right	easy	(3, 4)	2	3	[(1, 1), (1, 3), (0, 1), (2, 3), (2, 2), (2, 1)]	[(1, 1), (1, 3), (1, 2), (0, 3), (2, 2), (2, 1)]	[(1, 1), (1, 3)]	[(0, 1), (2, 3)]	[(2, 2), (2, 1)]	True	7	4	3	0.5	7.5	15.0	15.500013666671292	22	0.6691265416666283	2	1.5836245416721797	True
2	1	2	left	0	2	right	hard	(4, 4)	3	3	[(0, 1), (2, 3), (3, 2), (1, 1), (0, 0), (3, 1), (1, 3), (3, 3), (1, 2)]	[(0, 1), (2, 3), (3, 2), (0, 3), (2, 2), (0, 2), (1, 3), (3, 3), (1, 2)]	[(0, 1), (2, 3), (3, 2)]	[(1, 1), (0, 0), (3, 1)]	[(1, 3), (3, 3), (1, 2)]	True	7	4	3	0.5	15.0	22.5	23.000020583334845	28	0.2365884583341539	1	0.4532266666719806	True
2	1	2	right	1	3	right	hard	(4, 4)	3	3	[(2, 3), (2, 0), (3, 1), (3, 0), (2, 1), (1, 3), (0, 3), (3, 2), (1, 0)]	[(2, 3), (2, 0), (3, 1), (3, 0), (2, 1), (1, 3), (2, 2), (3, 3), (1, 2)]	[(2, 3), (2, 0), (3, 1)]	[(3, 0), (2, 1), (1, 3)]	[(0, 3), (3, 2), (1, 0)]	True	7	4	3	0.5	22.5	30.0	30.500019666673325	41	0.0306034166642348	1	0.5469645833363757	False
1	4	3	right	1	0	left	easy	(3, 4)	2	3	[(0, 1), (1, 1), (0, 0), (2, 1), (1, 0), (1, 2)]	[(0, 1), (1, 1), (0, 0), (2, 1), (2, 0), (0, 2)]	[(0, 1), (1, 1)]	[(0, 0), (2, 1)]	[(1, 0), (1, 2)]	True	7	4	3	0.5	0.0	7.5	323.0002057083475	806	0.2873317083431175	3	1.286694541660836	True
1	4	3	left	0	1	left	easy	(3, 4)	2	3	[(2, 2), (1, 0), (2, 3), (1, 2), (0, 0), (2, 1)]	[(2, 2), (1, 0), (2, 3), (1, 2), (1, 3), (0, 2)]	[(2, 2), (1, 0)]	[(2, 3), (1, 2)]	[(0, 0), (2, 1)]	True	7	4	3	0.5	7.5	15.0	330.50002824999683	828	0.0716974583338014	4	1.0820802916714456	True
1	4	3	right	1	2	left	hard	(4, 4)	3	3	[(0, 0), (1, 2), (0, 2), (2, 2), (1, 1), (0, 3), (3, 2), (1, 3), (2, 1)]	[(0, 0), (1, 2), (0, 2), (2, 2), (1, 1), (0, 3), (0, 1), (1, 0), (2, 3)]	[(0, 0), (1, 2), (0, 2)]	[(2, 2), (1, 1), (0, 3)]	[(3, 2), (1, 3), (2, 1)]	True	7	4	3	0.5	15.0	22.5	338.00003158334584	850	0.0717441250017145	3	0.9903626250015805	True
1	4	3	right	1	3	left	hard	(4, 4)	3	3	[(1, 2), (3, 3), (2, 1), (1, 3), (2, 0), (2, 2), (0, 3), (3, 2), (2, 3)]	[(1, 2), (3, 3), (2, 1), (0, 2), (3, 1), (1, 1), (0, 3), (3, 2), (2, 3)]	[(1, 2), (3, 3), (2, 1)]	[(1, 3), (2, 0), (2, 2)]	[(0, 3), (3, 2), (2, 3)]	True	7	4	3	0.5	22.5	30.0	345.50002337500337	872	0.0380644999968353	3	1.3030933333502617	True
1	4	3	right	1	0	left	easy	(3, 4)	2	3	[(0, 0), (1, 1), (2, 1), (0, 1), (2, 0), (1, 0)]	[(0, 0), (1, 1), (2, 1), (0, 1), (0, 2), (2, 2)]	[(0, 0), (1, 1)]	[(2, 1), (0, 1)]	[(2, 0), (1, 0)]	True	7	4	3	0.5	0.0	7.5	358.00022483333305	760	0.213905041659018	3	1.011051249995944	True
1	4	3	right	1	1	left	easy	(3, 4)	2	3	[(0, 1), (0, 2), (1, 1), (1, 2), (0, 3), (2, 1)]	[(0, 1), (0, 2), (1, 1), (1, 2), (1, 0), (2, 2)]	[(0, 1), (0, 2)]	[(1, 1), (1, 2)]	[(0, 3), (2, 1)]	True	7	4	3	0.5	7.5	15.0	365.50003995833686	777	0.1501265416591195	3	1.5802629583340604	True
1	4	3	right	1	2	left	hard	(4, 4)	3	3	[(2, 0), (3, 0), (1, 1), (2, 1), (0, 1), (3, 1), (0, 0), (2, 2), (1, 2)]	[(2, 0), (3, 0), (1, 1), (2, 1), (0, 1), (3, 1), (1, 0), (0, 2), (3, 2)]	[(2, 0), (3, 0), (1, 1)]	[(2, 1), (0, 1), (3, 1)]	[(0, 0), (2, 2), (1, 2)]	True	7	4	3	0.5	15.0	22.5	373.0000410000066	794	0.2035639166570035	3	1.6010070416814417	True
1	4	3	right	1	3	left	hard	(4, 4)	3	3	[(0, 0), (1, 0), (2, 3), (2, 2), (1, 3), (2, 0), (3, 2), (0, 1), (3, 0)]	[(1, 1), (1, 2), (2, 1), (2, 2), (1, 3), (2, 0), (3, 2), (0, 1), (3, 0)]	[(0, 0), (1, 0), (2, 3)]	[(2, 2), (1, 3), (2, 0)]	[(3, 2), (0, 1), (3, 0)]	True	7	4	3	0.5	22.5	30.0	380.5000354166696	812	0.2425502499972935	4	1.0200860833283514	False
2	4	3	left	0	0	left	easy	(3, 4)	2	3	[(0, 0), (0, 2), (0, 1), (1, 0), (2, 0), (0, 3)]	[(0, 0), (0, 2), (0, 1), (1, 0), (1, 2), (1, 1)]	[(0, 0), (0, 2)]	[(0, 1), (1, 0)]	[(2, 0), (0, 3)]	True	7	4	3	0.5	0.0	7.5	288.0002324583329	543	0.3023116249969462	2	0.8819579166738549	False
2	4	3	left	0	1	left	easy	(3, 4)	2	3	[(0, 3), (2, 2), (1, 3), (1, 2), (1, 1), (0, 2)]	[(0, 1), (2, 3), (1, 3), (1, 2), (1, 1), (0, 2)]	[(0, 3), (2, 2)]	[(1, 3), (1, 2)]	[(1, 1), (0, 2)]	True	7	4	3	0.5	7.5	15.0	295.50005654167035	562	0.1642239999928278	2	1.921493708330672	False
2	4	3	right	1	2	left	hard	(4, 4)	3	3	[(3, 3), (0, 0), (2, 2), (3, 2), (1, 0), (0, 1), (2, 3), (1, 1), (3, 1)]	[(1, 3), (0, 2), (2, 1), (3, 2), (1, 0), (0, 1), (2, 3), (1, 1), (3, 1)]	[(3, 3), (0, 0), (2, 2)]	[(3, 2), (1, 0), (0, 1)]	[(2, 3), (1, 1), (3, 1)]	True	7	4	3	0.5	15.0	22.5	303.00004616667866	579	1.1496572083269712	1	0.5462670416745823	False
2	4	3	right	1	3	left	hard	(4, 4)	3	3	[(1, 2), (2, 1), (2, 3), (2, 2), (3, 1), (1, 1), (2, 0), (3, 2), (3, 3)]	[(1, 2), (2, 1), (2, 3), (2, 2), (3, 1), (1, 1), (0, 1), (1, 3), (1, 0)]	[(1, 2), (2, 1), (2, 3)]	[(2, 2), (3, 1), (1, 1)]	[(2, 0), (3, 2), (3, 3)]	True	7	4	3	0.5	22.5	30.0	310.50004970833834	597	0.3893819999939296	2	1.112814125008299	False
1	4	3	right	1	0	left	easy	(3, 4)	2	3	[(0, 0), (1, 0), (0, 1), (2, 0), (1, 1), (2, 1)]	[(2, 2), (1, 2), (0, 1), (2, 0), (1, 1), (2, 1)]	[(0, 0), (1, 0)]	[(0, 1), (2, 0)]	[(1, 1), (2, 1)]	True	7	4	3	0.5	0.0	7.5	428.0002263333299	1085	0.061586833326146	0		False
1	4	3	left	0	1	left	easy	(3, 4)	2	3	[(0, 0), (2, 0), (2, 1), (0, 1), (1, 1), (0, 2)]	[(0, 3), (1, 2), (2, 1), (0, 1), (1, 1), (0, 2)]	[(0, 0), (2, 0)]	[(2, 1), (0, 1)]	[(1, 1), (0, 2)]	True	7	4	3	0.5	7.5	15.0	435.5000389166671	1101	0.2665091249946272	4	0.99572483333759	True
1	4	3	right	1	2	left	hard	(4, 4)	3	3	[(1, 2), (2, 0), (0, 1), (1, 3), (2, 1), (0, 2), (3, 0), (1, 1), (3, 1)]	[(1, 2), (2, 0), (0, 1), (2, 2), (1, 0), (0, 0), (3, 0), (1, 1), (3, 1)]	[(1, 2), (2, 0), (0, 1)]	[(1, 3), (2, 1), (0, 2)]	[(3, 0), (1, 1), (3, 1)]	True	7	4	3	0.5	15.0	22.5	443.00003695832856	1116	0.0807816250016912	4	0.9693727083213162	False
1	4	3	right	1	3	left	hard	(4, 4)	3	3	[(3, 2), (0, 2), (3, 3), (1, 2), (0, 1), (3, 1), (0, 3), (2, 2), (2, 1)]	[(3, 2), (0, 2), (3, 3), (1, 3), (2, 3), (2, 0), (0, 3), (2, 2), (2, 1)]	[(3, 2), (0, 2), (3, 3)]	[(1, 2), (0, 1), (3, 1)]	[(0, 3), (2, 2), (2, 1)]	True	7	4	3	0.5	22.5	30.0	450.5000378750119	1132	0.0619921250035986	3	1.7059639999934006	True
2	4	3	right	1	0	left	easy	(3, 4)	2	3	[(1, 0), (2, 0), (1, 1), (0, 0), (1, 2), (2, 1)]	[(1, 0), (2, 0), (1, 3), (2, 2), (1, 2), (2, 1)]	[(1, 0), (2, 0)]	[(1, 1), (0, 0)]	[(1, 2), (2, 1)]	True	7	4	3	0.5	0.0	7.5	253.00021883333105	600	0.4527186666673515	3	1.423437166682561	True
2	4	3	left	0	1	left	easy	(3, 4)	2	3	[(2, 3), (1, 0), (1, 1), (2, 0), (2, 2), (1, 3)]	[(2, 3), (1, 0), (0, 0), (0, 3), (2, 2), (1, 3)]	[(2, 3), (1, 0)]	[(1, 1), (2, 0)]	[(2, 2), (1, 3)]	True	7	4	3	0.5	7.5	15.0	260.50003554165596	614	0.3594287500018254	4	1.7533323749958072	True
2	4	3	left	0	2	left	hard	(4, 4)	3	3	[(3, 1), (1, 1), (2, 1), (2, 0), (2, 2), (1, 0), (2, 3), (3, 2), (0, 0)]	[(3, 1), (1, 1), (2, 1), (2, 0), (2, 2), (1, 0), (1, 2), (0, 1), (3, 0)]	[(3, 1), (1, 1), (2, 1)]	[(2, 0), (2, 2), (1, 0)]	[(2, 3), (3, 2), (0, 0)]	True	7	4	3	0.5	15.0	22.5	268.0000397083204	627	0.2516092500009108	4	1.2363075833418409	True
2	4	3	right	1	3	left	hard	(4, 4)	3	3	[(2, 0), (3, 0), (2, 1), (1, 0), (3, 1), (1, 1), (1, 2), (0, 1), (2, 2)]	[(3, 2), (1, 3), (0, 2), (1, 0), (3, 1), (1, 1), (1, 2), (0, 1), (2, 2)]	[(2, 0), (3, 0), (2, 1)]	[(1, 0), (3, 1), (1, 1)]	[(1, 2), (0, 1), (2, 2)]	True	7	4	3	0.5	22.5	30.0	275.50003599999764	641	0.0599747499945806	3	1.254470333326026	True
1	4	3	right	1	0	left	easy	(3, 4)	2	3	[(2, 3), (0, 1), (0, 2), (0, 0), (2, 2), (1, 3)]	[(2, 3), (0, 1), (2, 1), (1, 1), (2, 2), (1, 3)]	[(2, 3), (0, 1)]	[(0, 2), (0, 0)]	[(2, 2), (1, 3)]	True	7	4	3	0.5	0.0	7.5	218.0002107499895	515	0.0785245833249064	3	2.096720000001369	True
1	4	3	right	1	1	left	easy	(3, 4)	2	3	[(1, 1), (0, 0), (1, 0), (1, 2), (0, 2), (2, 0)]	[(1, 1), (0, 0), (1, 0), (1, 2), (2, 2), (2, 1)]	[(1, 1), (0, 0)]	[(1, 0), (1, 2)]	[(0, 2), (2, 0)]	True	7	4	3	0.5	7.5	15.0	225.50001754164987	529	0.132649749997654	4	1.7807235833170123	False
1	4	3	right	1	2	left	hard	(4, 4)	3	3	[(0, 3), (3, 2), (2, 3), (2, 2), (3, 1), (0, 2), (1, 2), (2, 1), (1, 3)]	[(3, 0), (2, 0), (0, 1), (2, 2), (3, 1), (0, 2), (1, 2), (2, 1), (1, 3)]	[(0, 3), (3, 2), (2, 3)]	[(2, 2), (3, 1), (0, 2)]	[(1, 2), (2, 1), (1, 3)]	True	7	4	3	0.5	15.0	22.5	233.00001387498924	545	0.0518027083162451	3	1.977207208328764	True
1	4	3	left	0	3	left	hard	(4, 4)	3	3	[(1, 0), (0, 3), (2, 2), (0, 0), (2, 3), (1, 3), (1, 2), (2, 0), (0, 1)]	[(1, 1), (0, 2), (2, 1), (0, 0), (2, 3), (1, 3), (1, 2), (2, 0), (0, 1)]	[(1, 0), (0, 3), (2, 2)]	[(0, 0), (2, 3), (1, 3)]	[(1, 2), (2, 0), (0, 1)]	True	7	4	3	0.5	22.5	30.0	240.5000199166534	560	0.2577912916458444	4	0.8996401666518068	True
2	4	3	left	0	0	left	easy	(3, 4)	2	3	[(2, 2), (2, 0), (2, 3), (2, 1), (1, 0), (1, 1)]	[(2, 2), (2, 0), (2, 3), (2, 1), (1, 2), (1, 3)]	[(2, 2), (2, 0)]	[(2, 3), (2, 1)]	[(1, 0), (1, 1)]	True	7	4	3	0.5	0.0	7.5	183.0002197499998	463	0.1954067083279369	4	0.9305520000052638	True
2	4	3	left	0	1	left	easy	(3, 4)	2	3	[(0, 3), (2, 0), (2, 1), (1, 0), (1, 3), (0, 0)]	[(0, 3), (2, 0), (2, 1), (1, 0), (1, 1), (2, 2)]	[(0, 3), (2, 0)]	[(2, 1), (1, 0)]	[(1, 3), (0, 0)]	True	7	4	3	0.5	7.5	15.0	190.5000374999945	482	0.4093973333365284	4	1.5584782916557742	True
2	4	3	left	0	2	left	hard	(4, 4)	3	3	[(1, 3), (2, 2), (0, 0), (1, 0), (2, 1), (3, 2), (3, 3), (1, 1), (2, 3)]	[(1, 3), (2, 2), (0, 0), (0, 1), (1, 2), (0, 3), (3, 3), (1, 1), (2, 3)]	[(1, 3), (2, 2), (0, 0)]	[(1, 0), (2, 1), (3, 2)]	[(3, 3), (1, 1), (2, 3)]	True	7	4	3	0.5	15.0	22.5	198.0000322083215	501	0.2630885416729143	3	0.9871999583265278	False
2	4	3	left	0	3	left	hard	(4, 4)	3	3	[(3, 1), (1, 2), (1, 1), (1, 3), (3, 0), (2, 2), (0, 1), (2, 0), (1, 0)]	[(3, 1), (1, 2), (1, 1), (0, 0), (0, 2), (2, 1), (0, 1), (2, 0), (1, 0)]	[(3, 1), (1, 2), (1, 1)]	[(1, 3), (3, 0), (2, 2)]	[(0, 1), (2, 0), (1, 0)]	True	7	4	3	0.5	22.5	30.0	205.5000397083204	520	0.1454657499998575	4	0.9364856250031152	True
3	4	3	left	0	0	left	easy	(3, 4)	2	3	[(2, 0), (0, 1), (1, 1), (0, 2), (1, 0), (2, 1)]	[(2, 2), (1, 2), (1, 1), (0, 2), (1, 0), (2, 1)]	[(2, 0), (0, 1)]	[(1, 1), (0, 2)]	[(1, 0), (2, 1)]	True	7	4	3	0.5	0.0	7.5	78.0002382916573	174	0.4750464583339635	4	0.7430567083210917	True
3	4	3	right	1	1	left	easy	(3, 4)	2	3	[(2, 1), (1, 1), (0, 1), (1, 2), (0, 2), (1, 3)]	[(0, 3), (0, 0), (0, 1), (1, 2), (0, 2), (1, 3)]	[(2, 1), (1, 1)]	[(0, 1), (1, 2)]	[(0, 2), (1, 3)]	True	7	4	3	0.5	7.5	15.0	85.50005570834037	192	0.1979437083355151	3	0.2773134999879403	True
3	4	3	right	1	2	left	hard	(4, 4)	3	3	[(0, 3), (2, 1), (1, 0), (0, 2), (1, 3), (3, 1), (3, 2), (2, 0), (0, 1)]	[(0, 3), (2, 1), (1, 0), (1, 1), (3, 0), (2, 2), (3, 2), (2, 0), (0, 1)]	[(0, 3), (2, 1), (1, 0)]	[(0, 2), (1, 3), (3, 1)]	[(3, 2), (2, 0), (0, 1)]	True	7	4	3	0.5	15.0	22.5	93.00005220832828	210	0.3730630416685017	4	0.678752166670165	False
3	4	3	left	0	3	left	hard	(4, 4)	3	3	[(0, 2), (1, 2), (2, 1), (2, 0), (3, 1), (1, 1), (3, 2), (2, 2), (1, 3)]	[(0, 2), (1, 2), (2, 1), (2, 0), (3, 1), (1, 1), (3, 0), (1, 0), (0, 1)]	[(0, 2), (1, 2), (2, 1)]	[(2, 0), (3, 1), (1, 1)]	[(3, 2), (2, 2), (1, 3)]	True	7	4	3	0.5	22.5	30.0	100.50005220832828	226	0.1054048750083893	3	0.6033211250032764	False
4	4	3	right	1	0	left	easy	(3, 4)	2	3	[(1, 0), (0, 3), (0, 2), (0, 0), (1, 3), (0, 1)]	[(1, 2), (2, 3), (0, 2), (0, 0), (1, 3), (0, 1)]	[(1, 0), (0, 3)]	[(0, 2), (0, 0)]	[(1, 3), (0, 1)]	True	7	4	3	0.5	0.0	7.5	8.000259749998804	16	0.2566240833257325	3	1.0522991666512098	True
4	4	3	left	0	1	left	easy	(3, 4)	2	3	[(0, 3), (0, 0), (0, 1), (0, 2), (1, 1), (1, 3)]	[(2, 1), (1, 2), (0, 1), (0, 2), (1, 1), (1, 3)]	[(0, 3), (0, 0)]	[(0, 1), (0, 2)]	[(1, 1), (1, 3)]	True	7	4	3	0.5	7.5	15.0	15.500049041656894	32	0.286420000004	4	1.3607740416628076	True
4	4	3	left	0	2	left	hard	(4, 4)	3	3	[(1, 2), (1, 1), (3, 2), (1, 0), (1, 3), (3, 1), (0, 2), (3, 3), (2, 2)]	[(1, 2), (1, 1), (3, 2), (1, 0), (1, 3), (3, 1), (2, 1), (2, 3), (3, 0)]	[(1, 2), (1, 1), (3, 2)]	[(1, 0), (1, 3), (3, 1)]	[(0, 2), (3, 3), (2, 2)]	True	7	4	3	0.5	15.0	22.5	23.00005454165512	47	0.3918672916624928	4	1.3354554583347635	True
4	4	3	left	0	3	left	hard	(4, 4)	3	3	[(1, 1), (0, 2), (1, 2), (2, 2), (0, 1), (1, 0), (0, 3), (3, 2), (2, 0)]	[(1, 1), (0, 2), (1, 2), (2, 2), (0, 1), (1, 0), (0, 0), (1, 3), (2, 1)]	[(1, 1), (0, 2), (1, 2)]	[(2, 2), (0, 1), (1, 0)]	[(0, 3), (3, 2), (2, 0)]	True	7	4	3	0.5	22.5	30.0	30.500052000003052	63	0.2668631249980535	4	1.0702608749998035	True
5	4	3	right	1	0	left	easy	(3, 4)	2	3	[(1, 0), (0, 0), (1, 1), (0, 1), (2, 0), (0, 2)]	[(1, 0), (0, 0), (1, 1), (0, 1), (1, 2), (2, 1)]	[(1, 0), (0, 0)]	[(1, 1), (0, 1)]	[(2, 0), (0, 2)]	True	7	4	3	0.5	0.0	7.5	428.0002254583378	750	0.3240162500005681	4	1.4142977083247388	False
5	4	3	right	1	1	left	easy	(3, 4)	2	3	[(1, 1), (0, 0), (1, 0), (1, 2), (0, 1), (2, 2)]	[(1, 1), (0, 0), (1, 0), (1, 2), (0, 2), (2, 0)]	[(1, 1), (0, 0)]	[(1, 0), (1, 2)]	[(0, 1), (2, 2)]	True	7	4	3	0.5	7.5	15.0	435.5000425416656	762	0.013949666681583	4	0.7682244583265856	False
5	4	3	right	1	2	left	hard	(4, 4)	3	3	[(2, 2), (3, 1), (3, 0), (1, 2), (2, 1), (2, 0), (2, 3), (3, 2), (1, 1)]	[(2, 2), (3, 1), (3, 0), (1, 2), (2, 1), (2, 0), (1, 0), (1, 3), (0, 2)]	[(2, 2), (3, 1), (3, 0)]	[(1, 2), (2, 1), (2, 0)]	[(2, 3), (3, 2), (1, 1)]	True	7	4	3	0.5	15.0	22.5	443.00003991666017	774	0.0130440416687633	3	1.2885397500067484	True
5	4	3	right	1	3	left	hard	(4, 4)	3	3	[(0, 0), (2, 0), (0, 2), (0, 1), (1, 2), (0, 3), (1, 0), (1, 3), (3, 0)]	[(0, 0), (2, 0), (0, 2), (0, 1), (1, 2), (0, 3), (2, 1), (1, 1), (2, 2)]	[(0, 0), (2, 0), (0, 2)]	[(0, 1), (1, 2), (0, 3)]	[(1, 0), (1, 3), (3, 0)]	True	7	4	3	0.5	22.5	30.0	450.50004829166573	786	0.2835104583500651	3	1.2559233333158772	True
6	4	3	left	0	0	left	easy	(3, 4)	2	3	[(0, 2), (0, 0), (0, 3), (0, 1), (1, 2), (1, 0)]	[(0, 2), (0, 0), (0, 3), (0, 1), (1, 3), (1, 1)]	[(0, 2), (0, 0)]	[(0, 3), (0, 1)]	[(1, 2), (1, 0)]	True	7	4	3	0.5	0.0	7.5	113.00023350000265	201	0.2010653333272785	4	1.1036938750039553	True
6	4	3	right	1	1	left	easy	(3, 4)	2	3	[(2, 2), (1, 1), (2, 1), (1, 2), (1, 3), (0, 2)]	[(2, 2), (1, 1), (2, 1), (1, 2), (1, 0), (2, 0)]	[(2, 2), (1, 1)]	[(2, 1), (1, 2)]	[(1, 3), (0, 2)]	True	7	4	3	0.5	7.5	15.0	120.5000596250029	215	0.30091179165174253	3	1.1497962499997811	True
6	4	3	left	0	2	left	hard	(4, 4)	3	3	[(1, 0), (0, 3), (0, 0), (2, 0), (0, 1), (0, 2), (1, 1), (3, 0), (1, 2)]	[(2, 1), (2, 2), (3, 1), (2, 0), (0, 1), (0, 2), (1, 1), (3, 0), (1, 2)]	[(1, 0), (0, 3), (0, 0)]	[(2, 0), (0, 1), (0, 2)]	[(1, 1), (3, 0), (1, 2)]	True	7	4	3	0.5	15.0	22.5	128.00004687499313	226	0.4720940833212808	4	1.0354878333455417	True
6	4	3	right	1	3	left	hard	(4, 4)	3	3	[(0, 0), (3, 3), (0, 1), (3, 2), (2, 3), (1, 0), (3, 1), (1, 1), (2, 2)]	[(0, 0), (3, 3), (0, 1), (3, 0), (2, 1), (1, 2), (3, 1), (1, 1), (2, 2)]	[(0, 0), (3, 3), (0, 1)]	[(3, 2), (2, 3), (1, 0)]	[(3, 1), (1, 1), (2, 2)]	True	7	4	3	0.5	22.5	30.0	135.50005504165892	239	0.04033629165496677	3	1.2570862916763872	True
