run_num	trial_num	frequency	stim_interval	trial_duration	response_duration	display_trial_feedback	start_time	end_time	n_deviants	deviant_times	deviant_type	deviant_positions	real_start_time	start_ttl	start_ttl_time	response	correct	rt	hand	key_yes	key_no
1	0	1	1.0	13	2	True	0	15	3	4.2;8.2;11.2	late;late;late	5;9;12	5.000836916733533	0	5.000837999978103		0				
1	1	1	1.0	13	2	True	15	30	0				20.00066737504676	0	20.000668499968015	0.0	1	0.6879262916045263			
1	0	1	1.0	13	2	True	0	15	0				5.000832541612908	0	5.000833583297208	1.0	0	1.1877864168491217			
1	1	1	1.0	13	2	True	15	30	2	19.2;26.2	late;late	5;12	20.000711874919944	0	20.00071287492756	3.0	0	1.2205267082899809			
1	0	1	1.0	13	2	True	0	15	1	6.2	late	7.0	5.000874916673638	0	5.000876000034623	2.0	0	1.1571512916125355			
1	1	1	1.0	13	2	True	15	30	0				20.000774000072852	0	20.000775083433837	1.0	0	0.9282726667588576			
1	0	1	1.0	13	2	True	0	15	0				5.000868499977514	0	5.000869583338499	0.0	1	0.8731262916699052			
1	1	1	1.0	13	2	True	15	30	3	19.2;22.2;24.8	late;late;early	5;8;11	20.000707208295353	0	20.000708208302967	3.0	1	1.3930096665862948			
1	0	1	1.0	13	2	True	0	15	0				5.000877958373167	0	5.000878958380781	2.0	0	0.7652940832776949			
1	1	1	1.0	13	2	True	15	30	2	21.2;24.8	late;early	7;11	20.00076320837252	0	20.000764249940403	3.0	0	1.1012002500938252			
1	0	1	1.0	13	2	True	0	15	0				5.000842458335683	0	5.000843416666612	0.0	1	0.7876984584145248			
1	1	1	1.0	13	2	True	15	30	2	21.2;24.8	late;early	7;11	20.000744124990888	0	20.000745083321817		0				
1	0	1	1.0	13	2	True	0	15	0				5.000895124976523	0	5.000896124984138	0.0	1	0.7516349166398868			
1	1	1	1.0	13	2	True	15	30	2	21.2;24.8	late;early	7;11	20.000809416756965	0	20.000810458441265	2.0	1	1.006221874966286			
1	0	1	1.0	13	2	True	0	15	0				5.000856916769408	0	5.000857958453707	0.0	1	0.6782794999890029			
1	1	1	1.0	13	2	True	15	30	2	21.2;24.8	late;early	7;11	20.000740791787393	0	20.000741875031963	3.0	0	0.9396549166413024			
1	0	1	1.0	13	2	True	0	15	0				5.000892624957487	0	5.000893666641787	0.0	1	1.0208427500911057			
1	1	1	1.0	13	2	True	15	30	1	22.2	late	8.0	20.000796625041403	0	20.000797666609287	2.0	0	1.520611874992028			
1	0	1	1.0	13	2	True	0	15	0				5.00084520841483	0	5.0008461667457595	1.0	0	0.953393750009127			
1	1	1	1.0	13	2	True	15	30	1	22.2	late	8.0	20.0007332918467	0	20.00073420838453	2.0	0	0.8996717083500698			
1	0	1	1.0	13	2	True	0	15	0				5.000885958317667	0	5.0008869166485965	0.0	1	0.990543624968268			
1	1	1	1.0	13	2	True	15	30	1	22.2	late	8.0	20.00079354166519	0	20.000794583233073	1.0	1	0.7687857082346454			
1	0	1	1.0	13	2	True	0	15	0				40.0008177915588	0	40.0008188332431	0.0	1	0.7954226250294596			
1	1	1	1.0	13	2	True	15	30	1	22.8	early	9.0	55.00060599995777	0	55.0006069582887	1.0	1	0.9790522082475944			
1	0	1	1.0	13	2	True	0	15	1	9.8	early	11.0	40.0012752499897	0	40.00127633335069	1.0	1	1.5248961250763386			
1	1	1	1.0	13	2	True	15	30	0				55.00066037499346	0	55.00066141679417		0				
1	0	1	1.0	13	2	True	0	15	2	2.8;11.2	early;late	4;12	110.00085420825052	0	110.00085524993484	1.0	0	0.9852529583731666			
1	1	1	1.0	13	2	True	15	30	0				125.00066816667096	0	125.00066912500188	2.0	0	1.0221935416338963			
1	0	1	1.0	13	2	True	0	15	0				40.00073120824527	0	40.00073220825288	0.0	1	1.394478500005789			
1	1	1	1.0	13	2	True	15	30	3	19.2;19.8;22.8	late;early;early	5;6;9	55.00074275000952	0	55.000743791577406	0.0	0	1.1461712499149144			
1	0	1	1.0	13	2	True	0	15	0				75.00076366658323	0	75.00076458323747	0.0	1	0.7368692083982751			
1	1	1	1.0	13	2	True	15	30	2	22.2;23.2	late;late	8;9	90.00061791657936	0	90.00061891658697	2.0	1	1.2205003750277683			
1	0	1	1.0	13	2	True	0	15	1	4.8	early	6.0	180.00083712500054	0	180.00083808333147		0				
1	1	1	1.0	13	2	True	15	30	0				195.0005767083494	0	195.0005777500337		0				
1	0	1	1.0	13	2	True	0	15	1	4.8	early	6.0	180.0013552083401	0	180.00135620834772		0				
1	1	1	1.0	13	2	True	15	30	0				195.00080391671509	0	195.00080495828297		0				
1	0	1	1.0	13	2	True	0	15	0				75.00079204153735	0	75.00079308333807		0				
1	1	1	1.0	13	2	True	15	30	2	22.2;23.2	late;late	8;9	90.00067970831878	0	90.00068079156335	3.0	0	1.8690904999384657			
1	0	1	1.0	13	2	True	0	15	0				75.00081391667482	0	75.00081487500574	2.0	0	0.9000367498956621			
1	1	1	1.0	13	2	True	15	30	2	22.2;23.2	late;late	8;9	90.00061962509062	0	90.00062062498182	1.0	0	0.4161901249317452			
1	0	1	1.0	13	2	True	0	15	1	8.2	late	9.0	5.000819583190605	0	5.000229458208196	0.0	0				
1	1	1	1.0	13	2	True	15	30	0				20.000577916624025	0	20.000016333186068	0.0	0				
1	0	1	1.0	13	2	True	0	15	1	8.2	late	9.0	5.000957333366387	0	5.000307125039399	1.0	0	1.5580268333433196			
1	1	1	1.0	13	2	True	15	30	0				20.000772958388552	0	20.00004041660577	2.0	0	0.951681416714564			
1	0	1	1.0	13	2	True	0	15	1	8.2	late	9.0	5.000831208424643	0	5.000235166749917	1.0	0	1.3810097918612882			
1	1	1	1.0	13	2	True	15	30	0				20.00087712495588	0	20.000023958389647	1.0	0	1.6946657500229776			
1	0	1	1.0	13	2	True	0	15	2	4.8;7.8	early;early	6;9	5.000938541837968	0	5.000286458409391	1.0	1	0.7492664583260193			
1	1	1	1.0	13	2	True	15	30	0				20.00067175005097	0	20.000033291755244	2.0	1	0.6054021250456572			
1	0	1	1.0	13	2	True	0	15	0				75.00079666660167	0	75.0002136665862	2.0	1	1.4932280000066385			
1	1	1	1.0	13	2	True	15	30	2	22.2;23.2	late;late	8;9	90.00067179161124	0	90.00002804165706	1.0	1	1.10564762505237			
1	0	1	1.0	13	2	True	0	15	0				8.00080608332064	0	8.00023033330217	1.0	0	1.9721764165442437			
1	1	1	1.0	13	2	True	15	30	2	17.8;25.8	early;early	4;12	23.000569333322343	0	23.000036458368413	1.0	1	1.0004224583972243			
1	0	1	1.0	13	2	True	0	15	0				8.000870041549206	0	8.000279041589238	2.0	1	1.4297156250104308			
1	1	1	1.0	13	2	True	15	30	2	17.8;25.8	early;early	4;12	23.000729499966837	0	23.00007499998901	1.0	1	1.3102442499948663			
1	0	1	1.0	13	2	True	0	15	0				78.00079333328176	0	78.00024979165755	2.0	1	1.9189585417043415			
1	1	1	1.0	13	2	True	15	30	2	19.2;20.8	late;early	5;7	93.00063187500928	0	93.0000672081951	1.0	1	0.6304652501130477			
1	0	1	1.0	13	2	True	0	15	1	7.2	late	8.0	8.000808958429843	0	8.00024566682987	1.0	1	1.4284131249878556			
1	1	1	1.0	13	2	True	15	30	0				23.00064641679637	0	23.00004445842933	2.0	1	1.4411759583745152			
1	0	1	1.0	13	2	True	0	15	1	7.2	late	8.0	8.000850875047036	0	8.000257458421402	0.0	0				
1	1	1	1.0	13	2	True	15	30	0				23.000630083377473	0	23.000046250061132	1.0	0	0.7028290417511016			
1	0	1	1.0	13	2	True	0	15	1	7.2	late	8.0	8.00084970833268	0	8.000249625067227	0.0	0				
1	1	1	1.0	13	2	True	15	30	0				23.000613958342	0	23.000057250028476	2.0	1	0.8156458331504837			
1	0	1	1.0	13	2	True	0	15	1	7.2	late	8.0	8.000832291669212	0	8.000235541723669	2.0	0	1.3560773333301768			
1	1	1	1.0	13	2	True	15	30	0				23.000597874983217	0	23.00004904170055	2.0	1	1.2885190834058449			
1	0	1	1.0	13	2	True	0	15	0				8.000831041717902	0	8.000239624991082	1.0	0	1.066099833231419			
1	1	1	1.0	13	2	True	15	30	2	20.8;24.2	early;late	7;10	23.000614208402112	0	23.000053208321333	2.0	0	0.5918514999793842			
1	0	1	1.0	13	2	True	0	15	3	3.8;9.2;11.2	early;late;late	5;10;12	78.00106604164466	0	78.00037408329081	1.0	1	1.5056161666288972			
1	1	1	1.0	13	2	True	15	30	0				93.0007536666235	0	93.00003949995153	2.0	1	1.1965908333659172			
1	0	1	1.0	13	2	True	0	15	3	3.8;9.2;11.2	early;late;late	5;10;12	78.00089691660833	0	78.00026770844124	2.0	0	0.6443399166455492			
1	1	1	1.0	13	2	True	15	30	0				93.00060445838608	0	93.0000488749938	2.0	1	0.6101213749498129			
1	0	1	1.0	13	2	True	0	15	0				43.00087116670329	0	43.00026641669683	1.0	0	1.6355735834222287			
1	1	1	1.0	13	2	True	15	30	3	18.2;20.2;25.2	late;late;late	4;6;11	58.000705583253875	0	58.00004083325621	1.0	1	0.6013204166665673			
1	0	1	1.0	13	2	True	0	15	0				43.000897750025615	0	43.00027312501334	0.0	0				
1	1	1	1.0	13	2	True	15	30	3	18.2;20.2;25.2	late;late;late	4;6;11	58.00061904161703	0	58.00002141657751	0.0	0				
1	0	1	1.0	13	2	True	0	15	0				43.001213874900714	0	43.00046320830006	2.0	1	1.0811018332606182			
1	1	1	1.0	13	2	True	15	30	3	18.2;20.2;25.2	late;late;late	4;6;11	58.000647166743875	0	58.000062291743234	1.0	1	1.5743794167647138			
1	0	1	1.0	13	2	True	0	15	2	2.8;8.2	early;late	4;9	113.00081620831044	0	113.00021287496202	0.0	0				
1	1	1	1.0	13	2	True	15	30	0				128.0007857499877	0	128.0000230417354	4.0	0	1.7920925000216812			
1	0	1	1.0	13	2	True	0	15	0				8.000889750081114	0	8.00026700005401	2.0	1	1.073350666672923			
1	1	1	1.0	13	2	True	15	30	3	19.2;23.8;26.2	late;early;late	5;10;12	23.00065095827449	0	23.000035500037484	1.0	1	0.6158815834205598			
1	0	1	1.0	13	2	True	0	15	3	4.2;7.8;11.2	late;early;late	5;9;12	8.000821708352305	0	8.000227666692808	0.0	0				
1	1	1	1.0	13	2	True	15	30	0				23.000565041671507	0	23.00001575006172	1.0	0	1.376994916587137			
1	0	1	1.0	13	2	True	0	15	2	5.2;10.8	late;early	6;12	78.00086929183453	0	78.0002582083689	2.0	0	1.9325847500003872			
1	1	1	1.0	13	2	True	15	30	0				93.00057495839428	0	93.00001595844516	1.0	0	0.6153807500377297			
1	0	1	1.0	13	2	True	0	15	0				8.000943541759625	0	8.000289041781798	0.0	0				
1	1	1	1.0	13	2	True	15	30	1	25.8	early	12.0	23.000657708384097	0	23.000059499870986	0.0	0				
1	0	1	1.0	13	2	True	0	15	0				393.0008693332784	0	393.00027487496845	3.0	1	0.6681539586279541			
1	1	1	1.0	13	2	True	15	30	3	19.2;21.2;25.8	late;late;early	5;7;12	408.0007572916802	0	408.00002983328886	4.0	1	0.9474224164150656			
1	0	1	1.0	13	2	True	0	15	1	8.2	late	9.0	8.004641291452572	0	8.002387791406363	0.0	0				
1	1	1	1.0	13	2	True	15	30	0				23.000837999861687	0	23.00014574988745	0.0	0				
1	0	1	1.0	13	2	True	0	15	0				43.00101316673681	0	43.000383416656405	3.0	0	1.3409947087056937			
1	1	1	1.0	13	2	True	15	30	2	25.2;26.2	late;late	11;12	58.000641708495095	0	58.00004966673441	2.0	0	1.87874854169786			
13	0	1	1.0	13	2	True	0	15	2	3.8;10.2	early;late	5;11	78.00083012506366	0	78.00023550004698	2.0	0	1.2557304583024234	right	1.0	2.0
13	1	1	1.0	13	2	True	15	30	0				93.00064262514934	0	93.0000320833642	2.0	1	1.5378216248936951	right	1.0	2.0
14	0	1	1.0	13	2	True	0	15	0				393.0011335832533	0	393.0004495834	3.0	1	1.4325133331585675	left	4.0	3.0
14	1	1	1.0	13	2	True	15	30	2	24.2;24.8	late;early	10;11	408.0006566666998	0	408.0000537917949	4.0	1	0.4334731251001358	left	4.0	3.0
4	0	1	1.0	13	2	True	0	15	3	3.8;7.2;10.8	early;late;early	5;8;12	78.00084124994464	0	78.00024225004017	4.0	1	1.668057250091806	left	4.0	3.0
4	1	1	1.0	13	2	True	15	30	0				93.00086570857091	0	93.00002720858902	3.0	1	0.8482413333840668	left	4.0	3.0
1	0	1	1.0	13	2	True	0	15	0				43.0008348750016	81	0.4782392499982961	3.0	1	0.7765090000029886	left	4.0	3.0
1	1	1	1.0	13	2	True	15	30	1	23.8	early	10.0	58.00065516666291	113	0.146558416665357	4.0	1	1.3453472500041244	left	4.0	3.0
1	0	1	1.0	13	2	True	0	15	0				43.00086716665828	1	43.00025133333111	0.0	0		left	4.0	3.0
1	1	1	1.0	13	2	True	15	30	1	23.8	early	10.0	58.00060479166132	1	58.00006437499542	0.0	0		left	4.0	3.0
1	0	1	1.0	13	2	True	0	15	0				43.000833874997625	1	43.00024608332751	0.0	0		left	4.0	3.0
1	1	1	1.0	13	2	True	15	30	1	23.8	early	10.0	58.00057295832812	1	58.00005475000216	0.0	0		left	4.0	3.0
1	0	1	1.0	13	2	True	0	15	0				43.00085191666585	61	0.7897406250049244	0.0	0		left	4.0	3.0
1	1	1	1.0	13	2	True	15	30	1	23.8	early	10.0	58.000671624999086	79	0.1218347499961964	0.0	0		left	4.0	3.0
1	0	1	1.0	13	2	True	0	15	0				43.00079895833187	17	0.7137045833369484	3.0	1	0.754134625000006	left	4.0	3.0
1	1	1	1.0	13	2	True	15	30	1	23.8	early	10.0	58.00068354166433	32	0.6333510000040405	4.0	1	0.7884235416640877	left	4.0	3.0
2	0	1	1.0	13	2	True	0	15	0				323.00078633332305	274	59.32928829166485	0.0	0		left	4.0	3.0
2	1	1	1.0	13	2	True	15	30	1	23.8	early	10.0	338.0005530833296	274	74.32910320832889	0.0	0		left	4.0	3.0
1	0	1	1.0	13	2	True	0	15	0				113.0008124166634	151	0.2512435416720109	0.0	0		right	1.0	2.0
1	1	1	1.0	13	2	True	15	30	2	23.2;24.8	late;early	9;11	128.00070104165934	171	0.6187764999995125	2.0	0	1.146410333327367	right	1.0	2.0
1	0	1	1.0	13	2	True	0	15	0				43.00085708332335	64	0.5552200000020093	2.0	1	1.1245046250041923	right	1.0	2.0
1	1	1	1.0	13	2	True	15	30	2	23.2;24.8	late;early	9;11	58.000781624999945	86	0.3870412500036764	1.0	1	1.7062513749988284	right	1.0	2.0
1	0	1	1.0	13	2	True	0	15	0				358.0008299583351	467	0.4417235000000801	0.0	0		right	1.0	2.0
1	1	1	1.0	13	2	True	15	30	1	19.8	early	6.0	373.0007620000033	491	0.0657007916670409	2.0	0	1.759155458334135	right	1.0	2.0
1	0	1	1.0	13	2	True	0	15	3	6.8;8.8;11.2	early;early;late	8;10;12	78.00084320833412	89	0.177264500001911	4.0	1	0.756173249996209	left	4.0	3.0
1	1	1	1.0	13	2	True	15	30	0				93.00080287500168	105	0.5432597499966505	3.0	1	1.4027551666586078	left	4.0	3.0
1	0	1	1.0	13	2	True	0	15	2	4.2;10.2	late;late	5;11	358.00083458332665	833	0.2523427916748915	3.0	0	1.504585374997987	left	4.0	3.0
1	1	1	1.0	13	2	True	15	30	0				373.00078020832734	874	0.2305868749972432	4.0	0	1.0802660416738945	left	4.0	3.0
2	0	1	1.0	13	2	True	0	15	3	6.8;8.8;11.2	early;early;late	8;10;12	183.00083245833957	307	0.4627351666713366	3.0	0	1.131986041662458	left	4.0	3.0
2	1	1	1.0	13	2	True	15	30	0				198.00072683333565	331	0.5226995416596765	4.0	0	0.8135183333361056	left	4.0	3.0
1	0	1	1.0	13	2	True	0	15	2	4.2;10.2	late;late	5;11	253.00083129166887	514	0.0386987916645011	4.0	1	1.097715291667555	left	4.0	3.0
1	1	1	1.0	13	2	True	15	30	0				268.00073758333747	547	0.4509631666660425	3.0	1	1.3089795416744892	left	4.0	3.0
1	0	1	1.0	13	2	True	0	15	3	3.8;7.8;11.2	early;early;late	5;9;12	218.0007924583333	571	0.0830569166646455	2.0	0	1.4572576666687382	right	1.0	2.0
1	1	1	1.0	13	2	True	15	30	0				233.00073566666833	604	0.1774169166747015	1.0	0	0.8718893333352753	right	1.0	2.0
2	0	1	1.0	13	2	True	0	15	0				8.00082937499974	17	0.4358444166646222	2.0	1	1.023149791668402	right	1.0	2.0
2	1	1	1.0	13	2	True	15	30	1	17.8	early	4.0	23.00075508333248	48	0.4387272916719666	1.0	1	1.0580104583277716	right	1.0	2.0
3	0	1	1.0	13	2	True	0	15	1	10.8	early	12.0	218.0008074166617	358	0.0818075833230977	0.0	0		right	1.0	2.0
3	1	1	1.0	13	2	True	15	30	0				233.00067216666503	379	0.5509693749991129	2.0	1	1.113667625002563	right	1.0	2.0
4	0	1	1.0	13	2	True	0	15	3	3.8;7.8;11.2	early;early;late	5;9;12	288.00079441667185	650	0.3173224999991362	2.0	0	1.303756291672471	right	1.0	2.0
4	1	1	1.0	13	2	True	15	30	0				303.00072158333205	687	0.1644082083366811	1.0	0	0.7288540416702745	right	1.0	2.0
1	0	1	1.0	13	2	True	0	15	0				148.00081383332872	270	0.0414508333269623	2.0	1	1.0226049999982934	right	1.0	2.0
1	1	1	1.0	13	2	True	15	30	1	17.8	early	4.0	163.00075445832772	315	0.1713029166639899	2.0	0	0.9301254583333504	right	1.0	2.0
2	0	1	1.0	13	2	True	0	15	1	10.8	early	12.0	393.0008236249996	769	0.808878875002847	2.0	0	1.1954485000023851	right	1.0	2.0
2	1	1	1.0	13	2	True	15	30	0				408.0007455833402	793	0.2929724583373172	2.0	1	1.6722122499995749	right	1.0	2.0
1	0	1	1.0	13	2	True	0	15	0				288.000811458347	711	0.1639079166634474	3.0	1	1.233415041671833	left	4.0	3.0
1	1	1	1.0	13	2	True	15	30	1	18.2	late	4.0	303.00073333334876	752	0.1328614166559418	3.0	0	1.3302037499961443	left	4.0	3.0
1	0	1	1.0	13	2	True	0	15	2	3.8;8.8	early;early	5;10	113.00091837500804	257	0.2192079999949783	4.0	1	1.1718293333251495	left	4.0	3.0
1	1	1	1.0	13	2	True	15	30	0				128.00081295832933	283	0.2192693750112084	3.0	1	0.7580441666650586	left	4.0	3.0
2	0	1	1.0	13	2	True	0	15	0				253.0008360833308	471	0.3803328749927459	3.0	1	1.3472314999962691	left	4.0	3.0
2	1	1	1.0	13	2	True	15	30	2	17.8;22.8	early;early	4;9	268.0007347083301	496	0.3525544166768668	0.0	0		left	4.0	3.0
1	0	1	1.0	13	2	True	0	15	0				78.00083558334154	194	0.1630992499995045	4.0	0	1.4430858333362266	left	4.0	3.0
1	1	1	1.0	13	2	True	15	30	3	18.8;20.8;25.2	early;early;late	5;7;11	93.00076241666102	234	0.2900370833231136	4.0	1	1.222865666670259	left	4.0	3.0
2	0	1	1.0	13	2	True	0	15	0				148.0008518333343	361	0.2378737916733371	0.0	0		left	4.0	3.0
2	1	1	1.0	13	2	True	15	30	3	21.2;22.2;24.2	late;late;late	7;8;10	163.00071179165388	389	0.3499507083470234	4.0	1	0.7299760000023525	left	4.0	3.0
1	0	1	1.0	13	2	True	0	15	1	3.2	late	4.0	78.00084862498625	187	0.0323260833392851	3.0	0	1.364504291646881	left	4.0	3.0
1	1	1	1.0	13	2	True	15	30	0				93.000719916643	227	0.0823623749893158	4.0	0	0.7000457083340734	left	4.0	3.0
2	0	1	1.0	13	2	True	0	15	2	3.2;3.8	late;early	4;5	148.0008322916692	383	0.1358850833348697	4.0	1	0.7063817500020377	left	4.0	3.0
2	1	1	1.0	13	2	True	15	30	0				163.00074637499347	421	0.1932819166686386	4.0	0	-1.094901500007836	left	4.0	3.0
3	0	1	1.0	13	2	True	0	15	2	7.8;9.8	early;early	9;11	43.000832208330394	97	0.3762474583199946	4.0	1	0.7182985416729935	left	4.0	3.0
3	1	1	1.0	13	2	True	15	30	0				58.00074166666309	132	0.3513645416678628	3.0	1	0.8258246250043157	left	4.0	3.0
4	0	1	1.0	13	2	True	0	15	3	3.8;6.2;7.2	early;late;late	5;7;8	358.00084341665206	682	0.0452359166665701	0.0	0		left	4.0	3.0
4	1	1	1.0	13	2	True	15	30	0				373.0007556666533	705	0.0564061249897349	4.0	0	0.457119666665676	left	4.0	3.0
5	0	1	1.0	13	2	True	0	15	0				218.00083470833488	419	0.2956515833502635	4.0	0	1.2349567916680826	left	4.0	3.0
5	1	1	1.0	13	2	True	15	30	2	19.2;23.8	late;early	5;10	233.0007283333398	444	0.4128147083392832	4.0	1	1.090611749998061	left	4.0	3.0
6	0	1	1.0	13	2	True	0	15	0				323.00086066665244	566	0.23020895833906252	4.0	0	1.1599885416653706	left	4.0	3.0
6	1	1	1.0	13	2	True	15	30	1	24.8	early	11.0	338.00075245831977	588	0.2264758750097826	3.0	0	0.7433617500064429	left	4.0	3.0
