run_num	key_true	key_false	trial_type	trial_num	hand	trial_dur	iti_dur	story	question	condition	answer	story_dur	question_dur	text_height	reward_value	reward_cue	reward_cue_dur	display_trial_feedback	start_time	end_time	real_start_time	start_ttl	start_ttl_time	response	rt	correct	points_earned
1	4	3	1	0	left	15	0	Sophie tells her mother that her train  from Budapest is arriving at 8PM in  Vienna. Sophie confuses the platform numbers and boards the train  to Prague without realising her mistake.	"Sophie arrives at the station 
in Prague does not see her mother

True or False"	belief	True	10	4	1.25	1	1	1	True	0	15	113.00072733359411	0	113.00072833360171	0		False	0
1	4	3	1	1	left	15	0	An old photograph of the public library portrays a red-brick building with green ivy creeping up the side. Soon after the photograph was taken, the building was  demolished and the site was left derelict	"A photograph taken today shows
an empty site

True or False"	photo	True	10	4	1.25	3	3	1	True	15	30	129.06654300005175	0	129.06654400005937	0		False	0
2	4	3	0	0	left	15	0	Expecting the game to be postponed because of the rain, the Garcia family took the subway home. The score was tied, 3-3. During their commute the rain stopped and the game soon ended with a score of 5-3.	"The Garcia family arrives home 
believing the score is 5-3.

True or False"	belief	False	10	4	1.25	3	3	1	True	0	15	8.000782124930993	0	8.000783124938607	3	3.9895533334929496	True	3
2	4	3	1	1	left	15	0	Accounts of the country's bustling economic  success were recorded in both fiction and non-fiction books from the early 1900s. Soon after, a horrible plague hit the country and  the country was sent into an economic depression.	"Early 1900s novels portray the
country as experiencing economic 
wealth.

True or False"	photo	True	10	4	1.25	1	1	1	True	15	30	23.057636083336547	0	23.057637125020847	3	3.540955499978736	False	0
3	4	3	1	0	left	15	0	When Lisa left Jacob he was deep asleep on the beach. A few minutes later a wave woke him. Seeing Lisa was gone Jacob decided to go swimming.	"Lisa now believes that Jacob is sleeping.

True or False "	belief	True	10	4	1.25	3	3	1	True	0	15	8.000840041553602	0	8.000841083237901	4	3.899246583227068	True	3
3	4	3	1	1	left	15	0	At the time a portrait was drawn of a young man, he had short brown hair and no facial hair. Now the man's hair is long and gray and so is his beard.  	"Today the length of the man's hair
is long.

True or False "	photo	True	10	4	1.25	1	1	1	True	15	30	23.000567500013855	0	23.000568541465327	4	3.2876191248651594	True	1
4	4	3	1	0	left	15	0	Susie parked her sportscar in the driveway. In the middle of the night Nathan moved her car into the garage to make room for his minivan. Susie woke up early in the morning.	"Susie sees the minivan in
the driveway.

True or False "	belief	True	10	4	1.25	1	1	1	True	0	15	78.00086120842025	0	78.00086225010455	0		False	0
4	4	3	0	1	left	15	0	The girl's middle school pictures showed her wearing a white blouse. Later, a red sock was accidentally washed with the blouse and the blouse turned pink.  	"Today the color of the blouse is white.

True or False "	photo	False	10	4	1.25	3	3	1	True	15	30	94.07264066650532	0	94.07264175009914	3	3.982894124928862	True	3
5	4	3	0	0	left	15	0	Sally and Greg called ahead of time to make a reservation for the back-country cabin. The park ranger forgot to write down the reservation and two other hikers got to the cabin first.	"When the hikers arrive they see no
one in their cabin.

True or False "	belief	False	10	4	1.25	3	3	1	True	0	15	78.00076820841059	0	78.00076925009489	4	3.9191021665465087	False	0
5	4	3	0	1	left	15	0	When the picture was taken of the house, it was one story tall. Since then, the renovators added an additional story and a garage.	"The house is currently one story.

True or False "	photo	False	10	4	1.25	1	1	1	True	15	30	93.0005409582518	0	93.00054191658272	4	2.385735125048086	False	0
10	1	2	0	0	right	15	0	Annie tells Carl that she has to work late.  Instead, Annie arrives home before Carl to  surprise him for his birthday. Carl goes  out with his friends straight after work, arriving home late. 	"Annie knows that Carl
is out with his friends

True or False"	belief	False	10	4	1.25	1	1	1	True	0	15	43.0008411668241	0	43.00084220827557	0		False	0
10	1	2	1	1	right	15	0	The professor asked his graduate student to present her work at a conference.  The student is sick on the day of the conference and she asks a  colleague to present the work instead. 	"The professor's graduate student 
does not give the presentation

True or False"	photo	True	10	4	1.25	3	3	1	True	15	30	59.0620110000018	0	59.06201200000942	1	2.1971680836286396	True	3
11	1	2	1	0	right	15	0	Josh tells Adam that he will meet  him at the game later that day.  At the last minute, Josh is called into work and forgets to tell Adam.	"Adam cannot find Josh in the stadium

True or False "	belief	True	10	4	1.25	3	3	1	True	0	15	8.000870499992743	0	8.000871541444212	1	3.494458708446473	True	3
11	1	2	0	1	right	15	0	Kate places her keys on the kitchen table  and goes to her bedroom to take a nap.  Her boyfriend sees Kate's keys and places them in her bag where she usually keeps them	"Kate wakes from her nap and 
looks for her keys in her bag

True or False"	photo	False	10	4	1.25	1	1	1	True	15	30	23.000582833308727	0	23.00058391643688	2	3.230022583156824	True	1
12	1	2	1	0	right	15	0	The morning of high school dance Sarah placed her high heel shoes under her dress and then went shopping. That afternoon, her sister borrowed the shoes and later put them under Sarah's bed.	"Sarah gets ready assuming her
shoes are under the dress.

True or False "	belief	True	10	4	1.25	1	1	1	True	0	15	148.00078408326954	0	148.00078512495384	2	3.822749791666866	False	0
12	1	2	1	1	right	15	0	Sargent famously painted the south bank of the river in 1885. In 1910 a huge dam was built, flooding out the whole river basin,  killing the old forests. Now the whole area is under water.	"In the painting the south bank of
the river is wooded. 

True or False "	photo	True	10	4	1.25	3	3	1	True	15	30	163.00055420817807	0	163.0005552081857	0		False	0
13	1	2	0	0	right	15	0	John told Mary that he had lost his keys. The two of them searched the house with no luck. Then Mary went outside to look in the car. Suddenly John noticed his keys behind the sofa.	"By the time Mary comes in, John
doesn't know where his keys are.

True or False "	belief	False	10	4	1.25	1	1	1	True	0	15	183.00070516648705	0	183.0007061250508	0		False	0
13	1	2	1	1	right	15	0	A biography describes the room as it was in 1965. Originally the walls were covered in dark wallpaper. By 1965 the paper had been stripped and replaced with cream paint.	"The biography says that the room
was light.

True or False"	photo	True	10	4	1.25	3	3	1	True	15	30	199.0668429164216	0	199.0668439164292	2	2.732777583412826	False	0
25	1	2	0	0	right	15	0	Michael told Andrew that he was going hiking for the day. An hour  into his walk, Michael hurts his leg and returns home	"Michael returns home that evening 
after a long day of hiking

True or False"	belief	False	10	4	1.25	1	1	1	True	0	15	253.00070858327672	0	253.00070962496105	1	3.8282072085421537	False	0
25	1	2	1	1	right	15	0	Tom leaves the house without letting  the dog out. Tom's neighbour hears  the dog barking and lets her into  the backyard.  Later, Tom arrives home from work. 	"Tom finds the dog in the backyard

True or False"	photo	True	10	4	1.25	3	3	1	True	15	30	268.00054200016893	0	268.00054320832714	1	2.0252495417371392	True	3
26	4	3	0	0	left	15	0	Amy leaves her sister in the library while she goes to class. Sometime thereafter, Amy's sister leaves the library to meet her friend on the other side of town. 	"Amy returns after class and 
finds her sister in the library

True or False"	belief	False	10	4	1.25	1	1	1	True	0	15	78.00072204158641	0	78.0007231249474	0		False	0
26	4	3	0	1	left	15	0	Paintings of the town in the early nineteenth century portray a bustling marketplace in the town square. In recent  years, the town square has been ruined by warfare. 	"Paintings of the town square depict 
ruins obliterated by warfare

True or False"	photo	False	10	4	1.25	3	3	1	True	15	30	94.0730565416161	0	94.07305754162371	0		False	0
