run_num	key_true	key_false	trial_num	hand	trial_dur	iti_dur	display_trial_feedback	trial_type	num_stimuli	feedback_type	start_time	end_time	real_start_time	start_ttl	start_ttl_time	response	rt	correct
1	4	3	0	left	2	0.5	True	1	4	acc	0.0	2.5	43.00024516670965	0	43.000246125040576	0		False
1	4	3	1	left	2	0.5	True	0	4	acc	2.5	5.0	45.50005133356899	0	45.50006070849486	0		False
1	4	3	2	left	2	0.5	True	0	8	acc	5.0	7.5	48.000054999953136	0	48.00005599996075	0		False
1	4	3	3	left	2	0.5	True	0	4	acc	7.5	10.0	50.500055791810155	0	50.50005679181777	3	1.830239583272487	True
1	4	3	4	left	2	0.5	True	1	8	acc	10.0	12.5	53.00005650008097	0	53.0000574584119	4	1.3979282500222323	True
1	4	3	5	left	2	0.5	True	0	8	acc	12.5	15.0	55.500057166675106	0	55.500065583502874	0		False
1	4	3	6	left	2	0.5	True	1	4	acc	15.0	17.5	58.000056916847825	0	58.00005791685544	4	1.1144344999920577	True
1	4	3	7	left	2	0.5	True	1	8	acc	17.5	20.0	60.50005783350207	0	60.50006741681136	4	1.1912492499686778	True
1	4	3	8	left	2	0.5	True	1	8	acc	20.0	22.5	63.00005520856939	0	63.00005620857701	4	1.0278691668063402	True
1	4	3	9	left	2	0.5	True	0	8	acc	22.5	25.0	65.50005783350207	0	65.5000589999836	0		False
1	4	3	10	left	2	0.5	True	1	8	acc	25.0	27.5	68.00006262492388	0	68.0000636249315	4	1.0082932086661458	True
1	4	3	11	left	2	0.5	True	0	8	acc	27.5	30.0	70.50005699996836	0	70.50005804165266	3	1.4930720417760313	True
2	4	3	0	left	2	0.5	True	0	4	acc	0.0	2.5	113.00021570851096	0	113.00021708360872	3	1.803028833353892	True
2	4	3	1	left	2	0.5	True	0	8	acc	2.5	5.0	115.50003437511624	0	115.50005250005051	3	1.276197333354503	True
2	4	3	2	left	2	0.5	True	0	4	acc	5.0	7.5	118.00002662511542	0	118.00002762512304	3	0.9263252918608488	True
2	4	3	3	left	2	0.5	True	0	4	acc	7.5	10.0	120.50003154180013	0	120.50004087504932	3	0.9553714585490524	True
2	4	3	4	left	2	0.5	True	0	4	acc	10.0	12.5	123.00002266676164	0	123.00002362509258	3	0.9414794165641068	True
2	4	3	5	left	2	0.5	True	1	8	acc	12.5	15.0	125.50002437504008	0	125.50002550007775	4	0.8983673334587365	True
2	4	3	6	left	2	0.5	True	1	4	acc	15.0	17.5	128.00003091688268	0	128.00003187498078	4	0.9244150000158696	True
2	4	3	7	left	2	0.5	True	0	4	acc	17.5	20.0	130.5000274167396	0	130.50003695860505	3	1.2011629999615252	True
2	4	3	8	left	2	0.5	True	0	8	acc	20.0	22.5	133.00002625002526	0	133.00002733361907	3	1.7873690000269562	True
2	4	3	9	left	2	0.5	True	1	8	acc	22.5	25.0	135.50003100000322	0	135.50003200001083	4	0.7921112498734146	True
2	4	3	10	left	2	0.5	True	0	8	acc	25.0	27.5	138.00003208359703	0	138.0000331667252	3	1.2665181667543948	True
2	4	3	11	left	2	0.5	True	1	4	acc	27.5	30.0	140.50003016693518	0	140.50003120861948	4	0.7087589167058468	True
3	4	3	0	left	2	0.5	True	1	8	acc	0.0	2.5	113.00020787492394	0	113.0002087915782	4	1.2370455833151937	True
3	4	3	1	left	2	0.5	True	0	8	acc	2.5	5.0	115.50002583349124	0	115.50002683349884	3	0.7771895413752645	True
3	4	3	2	left	2	0.5	True	1	8	acc	5.0	7.5	118.00001304177567	0	118.00001416658051	4	0.6512289999518543	True
3	4	3	3	left	2	0.5	True	0	4	acc	7.5	10.0	120.50001591676846	0	120.50001750001684	3	0.8774956250563264	True
3	4	3	4	left	2	0.5	True	0	4	acc	10.0	12.5	123.00001537497155	0	123.00001637497915	3	1.298463041894138	True
3	4	3	5	left	2	0.5	True	1	8	acc	12.5	15.0	125.50001349998638	0	125.50001445831732	4	0.7004746666643769	True
3	4	3	6	left	2	0.5	True	1	4	acc	15.0	17.5	128.00001483340748	0	128.0000158334151	3	1.0812353333458304	False
3	4	3	7	left	2	0.5	True	1	8	acc	17.5	20.0	130.500025333371	0	130.50002637482248	4	1.1232127498369664	True
3	4	3	8	left	2	0.5	True	0	8	acc	20.0	22.5	133.0000165833626	0	133.00001750001684	3	1.2083946666680276	True
3	4	3	9	left	2	0.5	True	0	8	acc	22.5	25.0	135.50002499995753	0	135.5000259585213	3	1.5783806249964982	True
3	4	3	10	left	2	0.5	True	1	4	acc	25.0	27.5	138.0000199165661	0	138.00002087489702	4	0.5644481249619275	True
3	4	3	11	left	2	0.5	True	1	8	acc	27.5	30.0	140.5000204166863	0	140.50002141669393	4	0.6653633748646826	True
4	4	3	0	left	2	0.5	True	0	4	acc	0.0	2.5	183.0001911665313	0	183.00019208341837	3	0.9154884999152272	True
4	4	3	1	left	2	0.5	True	0	8	acc	2.5	5.0	185.50002279155888	0	185.50002395827323	3	0.9219001249875872	True
4	4	3	2	left	2	0.5	True	1	8	acc	5.0	7.5	188.00001979153603	0	188.00002916669473	4	0.5961317501496524	True
4	4	3	3	left	2	0.5	True	1	8	acc	7.5	10.0	190.5000307501759	0	190.50004008342512	4	0.6012117501813918	True
4	4	3	4	left	2	0.5	True	0	4	acc	10.0	12.5	193.00003304169513	0	193.00004237517717	3	0.7151230417657644	True
4	4	3	5	left	2	0.5	True	0	8	acc	12.5	15.0	195.50002162507735	0	195.5000310416799	3	0.9839601668063552	True
4	4	3	6	left	2	0.5	True	1	4	acc	15.0	17.5	198.00003083329648	0	198.0000408750493	4	0.9061343334615232	True
4	4	3	7	left	2	0.5	True	1	4	acc	17.5	20.0	200.5000235834159	0	200.50003295834176	3	0.8201685000676662	False
4	4	3	8	left	2	0.5	True	0	8	acc	20.0	22.5	203.00003266660497	0	203.00004208344035	3	1.425195958232507	True
4	4	3	9	left	2	0.5	True	1	8	acc	22.5	25.0	205.5000265834387	0	205.50003591668792	4	0.7656660417560488	True
4	4	3	10	left	2	0.5	True	1	8	acc	25.0	27.5	208.00003150012344	0	208.00004920829087	3	0.9441237498540432	False
4	4	3	11	left	2	0.5	True	0	4	acc	27.5	30.0	210.50003445823677	0	210.5000357083045	3	1.233989333268255	True
5	4	3	0	left	2	0.5	True	0	4	acc	0.0	2.5	113.00019237515517	0	113.00019337516278	3	0.9032610834110528	True
5	4	3	1	left	2	0.5	True	1	4	acc	2.5	5.0	115.50002062506974	0	115.50002158340068	4	0.6985105834901333	True
5	4	3	2	left	2	0.5	True	1	4	acc	5.0	7.5	118.0000216665212	0	118.00002258340828	3	0.9812845000997186	False
5	4	3	3	left	2	0.5	True	0	8	acc	7.5	10.0	120.50003204145467	0	120.50003295834176	3	1.6739987500477582	True
5	4	3	4	left	2	0.5	True	0	8	acc	10.0	12.5	123.0000232500024	0	123.00002420833334	3	1.84415266639553	True
5	4	3	5	left	2	0.5	True	0	4	acc	12.5	15.0	125.50001950003208	0	125.50002041645348	3	1.0644226665608585	True
5	4	3	6	left	2	0.5	True	1	8	acc	15.0	17.5	128.000024541514	0	128.00002545840107	4	0.8107488334644586	True
5	4	3	7	left	2	0.5	True	1	4	acc	17.5	20.0	130.5000201666262	0	130.50002112495713	4	1.5757665415294468	True
5	4	3	8	left	2	0.5	True	0	4	acc	20.0	22.5	133.00002525001764	0	133.00002620834857	3	1.0099619580432773	True
5	4	3	9	left	2	0.5	True	0	8	acc	22.5	25.0	135.50002804165706	0	135.500028999988	0		False
5	4	3	10	left	2	0.5	True	0	8	acc	25.0	27.5	138.00002937507816	0	138.00003029149957	3	1.7768770416732875	True
5	4	3	11	left	2	0.5	True	1	8	acc	27.5	30.0	140.5000206665136	0	140.50002158340067	4	0.6696743331849575	True
13	1	2	0	right	2	0.5	True	0	4	acc	0.0	2.5	148.00017916643992	0	148.00018020835705	1	1.2659250418655574	False
13	1	2	1	right	2	0.5	True	0	8	acc	2.5	5.0	150.50001979153603	0	150.50002929149196	2	1.8083977084606888	True
13	1	2	2	right	2	0.5	True	1	8	acc	5.0	7.5	153.00001145829447	0	153.0000123749487	1	0.7302207085303962	True
13	1	2	3	right	2	0.5	True	0	8	acc	7.5	10.0	155.5000199165661	0	155.5000291664619	2	1.756760833086446	True
13	1	2	4	right	2	0.5	True	0	8	acc	10.0	12.5	158.00001904158853	0	158.0000200001523	2	1.330464999889955	True
13	1	2	5	right	2	0.5	True	1	4	acc	12.5	15.0	160.50001279148273	0	160.5000219999347	1	0.7634964999742806	True
13	1	2	6	right	2	0.5	True	1	4	acc	15.0	17.5	163.00001866649836	0	163.00002787495032	1	0.8801687499508262	True
13	1	2	7	right	2	0.5	True	0	4	acc	17.5	20.0	165.5000147500541	0	165.50002399994992	2	0.9703574168961496	True
13	1	2	8	right	2	0.5	True	0	4	acc	20.0	22.5	168.00001204153523	0	168.00001295818947	2	1.1405009583104402	True
13	1	2	9	right	2	0.5	True	1	4	acc	22.5	25.0	170.50001770840026	0	170.5000186250545	2	1.0170692086685449	False
13	1	2	10	right	2	0.5	True	1	8	acc	25.0	27.5	173.00001066643745	0	173.00001158332452	1	1.4620477915741503	True
13	1	2	11	right	2	0.5	True	0	8	acc	27.5	30.0	175.50001616659574	0	175.50002541649155	2	1.6722952916752547	True
14	1	2	0	right	2	0.5	True	0	4	acc	0.0	2.5	148.00018562516198	0	148.0001866251696	2	0.887797083472833	True
14	1	2	1	right	2	0.5	True	1	4	acc	2.5	5.0	150.50002808333377	0	150.50002908334136	1	0.4710120835807174	True
14	1	2	2	right	2	0.5	True	1	4	acc	5.0	7.5	153.0000406249892	0	153.00004220823757	1	0.7234960831701756	True
14	1	2	3	right	2	0.5	True	1	8	acc	7.5	10.0	155.500039833365	0	155.50004070834257	1	0.9525588748510928	True
14	1	2	4	right	2	0.5	True	0	8	acc	10.0	12.5	158.0000393751543	0	158.00004883343354	2	0.8263618748169392	True
14	1	2	5	right	2	0.5	True	1	4	acc	12.5	15.0	160.50002916669473	0	160.5000300416723	1	0.804338708287105	True
14	1	2	6	right	2	0.5	True	1	8	acc	15.0	17.5	163.00003245845437	0	163.0000419584103	1	0.6415374586358666	True
14	1	2	7	right	2	0.5	True	0	8	acc	17.5	20.0	165.5000322915148	0	165.50005012517795	2	1.0598372085951269	True
14	1	2	8	right	2	0.5	True	0	8	acc	20.0	22.5	168.0000365001615	0	168.00004579150118	2	0.8642945834435523	True
14	1	2	9	right	2	0.5	True	1	8	acc	22.5	25.0	170.50002929149196	0	170.50003020837903	1	0.6504298748914152	True
14	1	2	10	right	2	0.5	True	1	8	acc	25.0	27.5	173.00003895838745	0	173.00004829163663	1	0.6550490418449044	True
14	1	2	11	right	2	0.5	True	1	8	acc	27.5	30.0	175.5000321250409	0	175.50003425008617	1	0.9614168333355336	True
15	1	2	0	right	2	0.5	True	1	8	acc	0.0	2.5	8.000276416772977	0	8.000277416780591	2	1.1575601249933245	False
15	1	2	1	right	2	0.5	True	1	8	acc	2.5	5.0	10.50004795822315	0	10.500048875110224	1	0.6616772499401122	True
15	1	2	2	right	2	0.5	True	0	4	acc	5.0	7.5	13.00005037500523	0	13.000051291892303	2	1.048399416729808	True
15	1	2	3	right	2	0.5	True	0	8	acc	7.5	10.0	15.500047291861849	0	15.500048249959946	2	0.9090011664666235	True
15	1	2	4	right	2	0.5	True	1	4	acc	10.0	12.5	18.000059333397076	0	18.000060833292082	1	0.4948801668360829	True
15	1	2	5	right	2	0.5	True	1	8	acc	12.5	15.0	20.50005729170516	0	20.500058791833	1	1.491928125033155	True
15	1	2	6	right	2	0.5	True	0	4	acc	15.0	17.5	23.000046958215535	0	23.00005625002086	2	0.8380511249415576	True
15	1	2	7	right	2	0.5	True	1	8	acc	17.5	20.0	25.50005012494512	0	25.500051041832194	1	0.6106768334284425	True
15	1	2	8	right	2	0.5	True	0	8	acc	20.0	22.5	28.00004750001244	0	28.000048416666687	2	1.0129095416050404	True
15	1	2	9	right	2	0.5	True	0	4	acc	22.5	25.0	30.5000525417272	0	30.50005350005813	2	0.7991822499316186	True
15	1	2	10	right	2	0.5	True	1	4	acc	25.0	27.5	33.00005825003609	0	33.0000674999319	1	0.724677333375439	True
15	1	2	11	right	2	0.5	True	1	8	acc	27.5	30.0	35.50006066681817	0	35.50007833330892	1	0.8543702915776521	True
18	1	2	0	right	2	0.5	True	0	4	acc	0.0	2.5	148.0002483332064	0	148.00024924986064	2	0.9141533335205168	True
18	1	2	1	right	2	0.5	True	1	8	acc	2.5	5.0	150.50005366653204	0	150.50005470821634	1	0.740739916684106	True
18	1	2	2	right	2	0.5	True	0	4	acc	5.0	7.5	153.00005462486297	0	153.00005554175004	1	0.9579700832255184	False
18	1	2	3	right	2	0.5	True	1	8	acc	7.5	10.0	155.50004354165867	0	155.50006116670556	1	0.6887838332913816	True
18	1	2	4	right	2	0.5	True	1	8	acc	10.0	12.5	158.0000457081478	0	158.0000633748714	1	0.6616135418880731	True
18	1	2	5	right	2	0.5	True	0	4	acc	12.5	15.0	160.5000486667268	0	160.5000495831482	2	0.8314750415738672	True
18	1	2	6	right	2	0.5	True	0	4	acc	15.0	17.5	163.0000532916747	0	163.00005441671237	2	0.8999624999705702	True
18	1	2	7	right	2	0.5	True	1	4	acc	17.5	20.0	165.50004854169674	0	165.50005083321594	1	0.5350716251414269	True
18	1	2	8	right	2	0.5	True	0	4	acc	20.0	22.5	168.0000491666142	0	168.00006091664545	2	0.7205139582511038	True
18	1	2	9	right	2	0.5	True	1	4	acc	22.5	25.0	170.50005595805123	0	170.5000568749383	1	0.5973972913343459	True
18	1	2	10	right	2	0.5	True	0	8	acc	25.0	27.5	173.0000522499904	0	173.00005312496796	1	0.8578848750330508	False
18	1	2	11	right	2	0.5	True	0	4	acc	27.5	30.0	175.50005504162982	0	175.50006429175846	2	1.1560352500528095	True
19	4	3	0	left	2	0.5	True	0	4	acc	0.0	2.5	113.00020679133013	0	113.0002077082172	4	1.5761789998505265	False
19	4	3	1	left	2	0.5	True	0	8	acc	2.5	5.0	115.50002174987458	0	115.5000229163561	0		False
19	4	3	2	left	2	0.5	True	0	8	acc	5.0	7.5	118.0000195831526	0	118.00002045813017	0		False
19	4	3	3	left	2	0.5	True	0	4	acc	7.5	10.0	120.50002070819028	0	120.50002162484452	3	1.2798589165322483	True
19	4	3	4	left	2	0.5	True	1	8	acc	10.0	12.5	123.00002449983731	0	123.00002545816824	4	1.0982143750879914	True
19	4	3	5	left	2	0.5	True	0	4	acc	12.5	15.0	125.50001724995673	0	125.50001812493429	3	1.2708619167096913	True
19	4	3	6	left	2	0.5	True	1	8	acc	15.0	17.5	128.0000231664162	0	128.00002412497997	4	0.8251941248308867	True
19	4	3	7	left	2	0.5	True	0	8	acc	17.5	20.0	130.50002045813017	0	130.50002133310772	3	1.021682749968022	True
19	4	3	8	left	2	0.5	True	1	4	acc	20.0	22.5	133.00001774984412	0	133.00001862482168	4	0.7518586665391922	True
19	4	3	9	left	2	0.5	True	0	4	acc	22.5	25.0	135.50001774984412	0	135.50001862482168	3	1.0104025832843035	True
19	4	3	10	left	2	0.5	True	1	8	acc	25.0	27.5	138.0000229999423	0	138.00002404139377	3	1.4070418749470264	False
19	4	3	11	left	2	0.5	True	0	4	acc	27.5	30.0	140.5000175414607	0	140.50001841643825	3	0.9533282082993537	True
